- Cited Guidance: Check the CDISC Controlled Terminology [see Appendix C - Controlled
    Terminology] for reserved two-character domain identifiers or abbreviations. If
    one has not been assigned by CDISC, then the sponsor may select the unique two-character
    domain code to be used consistently throughout the submission.
  Class: ALL
  Condition: Not custom domain
  Document: IG v3.2
  Domain: ALL
  Item: 3.d
  Release Notes: ''
  Rule: DOMAIN = valid Domain Code published by CDISC
  Rule ID: CG0001
  Rule Version: '1'
  SDTMIG Version: '3.2'
  Section: '2.6'
  Variable: DOMAIN
- Cited Guidance: Determine the domain code, one that is not a domain code in the
    CDISC Controlled Terminology codelist "SDTM Domain Abbreviations" available at
    http://www.cancer.gov/research/resources/terminology/cdisc. If it desired to have
    this domain code as part of CDISC controlled terminology, then submit a request
    to https://ncitermform.nci.nih.gov/ncitermform/?version=cdisc. The sponsor-selected,
    two-character domain code should be used consistently throughout the submission.
  Class: ALL
  Condition: Not custom domain
  Document: IG v3.3
  Domain: ALL
  Item: 3.e
  Release Notes: ''
  Rule: DOMAIN = valid Domain Code published by CDISC
  Rule ID: CG0001
  Rule Version: '1'
  SDTMIG Version: '3.3'
  Section: '2.6'
  Variable: DOMAIN
- Cited Guidance: Using SDTM-specified standard domain names and prefixes where applicable
  Class: ALL
  Condition: Not custom domain
  Document: IG v3.4
  Domain: ALL
  Item: ''
  Release Notes: Section and cited guidance updated.  Orginal cited guidance was for
    a custom domain.
  Rule: DOMAIN = valid Domain Code published by CDISC
  Rule ID: CG0001
  Rule Version: '1'
  SDTMIG Version: '3.4'
  Section: 3.2.2
  Variable: DOMAIN
- Cited Guidance: Collected duration of an event, intervention, or finding represented
    in ISO 8601 character format. Used only if collected on the CRF and not derived.
  Class: ALL
  Condition: --DUR ^= null
  Document: Model v1.4
  Domain: ALL
  Item: ''
  Release Notes: ''
  Rule: --DUR collected and not derived
  Rule ID: CG0002
  Rule Version: '1'
  SDTMIG Version: '3.2'
  Section: 2.2.5
  Variable: --DUR
- Cited Guidance: Collected duration of an event, intervention, or finding. Used only
    if collected on the CRF and not derived.  Format=ISO8601
  Class: ALL
  Condition: --DUR ^= null
  Document: Model v1.7
  Domain: ALL
  Item: ''
  Release Notes: ''
  Rule: --DUR collected and not derived
  Rule ID: CG0002
  Rule Version: '1'
  SDTMIG Version: '3.3'
  Section: 2.2.5
  Variable: --DUR
- Cited Guidance: Used only if collected on the CRF and not derived.
  Class: ALL
  Condition: --DUR ^= null
  Document: Model v2.0
  Domain: ALL
  Item: --DUR
  Release Notes: Cited guidance updated. Reference to model section and item updated
    per new style.
  Rule: --DUR collected and not derived
  Rule ID: CG0002
  Rule Version: '1'
  SDTMIG Version: '3.4'
  Section: Timing
  Variable: --DUR
- Cited Guidance: 'IG v3.2[4.1.4.4][The Study Day value is incremented by 1 for each
    date following RFSTDTC. Dates prior to RFSTDTC are decreased by 1, with the date
    preceding RFSTDTC designated as Study Day -1 (there is no Study Day 0). . . .
    All Study Day values are integers.]IG v3.2[4.1.4.4][Thus, to calculate Study Day:  --DY
    = (date portion of --DTC) - (date portion of RFSTDTC) + 1 if --DTC is on or after
    RFSTDTC --DY = (date portion of --DTC) - (date portion of RFSTDTC) if --DTC precedes
    RFSTDTC This algorithm should be used across all domains.]'
  Class: ALL
  Condition: Date portion of --DTC is complete and date portion of RFSTDTC is a complete
    date AND --DY is ^= null
  Document: IG v3.2
  Domain: ALL
  Item: ''
  Release Notes: 'A change in the condition resulted in a new rule version.  The version
    1 condition was: "Date portion of --DTC is complete and RFSTDTC is a complete
    date AND --DY is ^= null". The date portion of RFSTDTC was added to ensure clarity.'
  Rule: --DY calculated as per the study day algorithm as a non-zero integer value
  Rule ID: CG0006
  Rule Version: '2'
  SDTMIG Version: '3.2'
  Section: 4.1.4.4
  Variable: --DY
- Cited Guidance: 'IG v3.3[4.4.4][The Study Day value is incremented by 1 for each
    date following RFSTDTC. Dates prior to RFSTDTC are decreased by 1, with the date
    preceding RFSTDTC designated as Study Day -1 (there is no Study Day 0). . . .
    All Study Day values are integers.] IG v3.3[4.4.4][ Thus, to calculate Study Day:  --DY
    = (date portion of --DTC) - (date portion of RFSTDTC) + 1 if --DTC is on or after
    RFSTDTC --DY = (date portion of --DTC) - (date portion of RFSTDTC) if --DTC precedes
    RFSTDTC This algorithm should be used across all domains.]'
  Class: ALL
  Condition: Date portion of --DTC is complete and date portion of RFSTDTC is a complete
    date AND --DY is ^= null
  Document: IG v3.3
  Domain: ALL
  Item: ''
  Release Notes: The original 3.2 rule condition did not specify that the date portion
    of RFSTDTC was to be used.  This is corrected in 3.3, as well as version 2 of
    the 3.2 rule.
  Rule: --DY calculated as per the study day algorithm as a non-zero integer value
  Rule ID: CG0006
  Rule Version: '2'
  SDTMIG Version: '3.3'
  Section: 4.4.4
  Variable: --DY
- Cited Guidance: 'The Study Day value is incremented by 1 for each date following
    RFSTDTC. Dates prior to RFSTDTC are decreased by 1, with the date preceding RFSTDTC
    designated as Study Day -1 (there is no Study Day 0). . . . All Study Day values
    are integers. Thus, to calculate Study Day: --DY = (date portion of --DTC) - (date
    portion of RFSTDTC) + 1 if --DTC is on or after RFSTDTC --DY = (date portion of
    --DTC) - (date portion of RFSTDTC) if --DTC precedes RFSTDTC This algorithm should
    be used across all domains.'
  Class: ALL
  Condition: 'Date portion of --DTC is complete and date portion of RFSTDTC is a complete
    date AND --DY is ^= null '
  Document: IG v3.4
  Domain: ALL
  Item: ''
  Release Notes: No Change
  Rule: '--DY calculated as per the study day algorithm as a non-zero integer value '
  Rule ID: CG0006
  Rule Version: '2'
  SDTMIG Version: '3.4'
  Section: 4.4.4
  Variable: --DY
- Cited Guidance: The permissible Study Day variables (--DY, --STDY, and --ENDY) .
    . . are determined by comparing the date portion of the respective date/time variables
    (--DTC, --STDTC, and --ENDTC) to the date portion of the Subject Reference Start
    Date (RFSTDTC from the Demographics domain).
  Class: ALL
  Condition: The date portion of --DTC ^= complete date or the date portion of DM.RFSTDTC
    ^= complete date
  Document: IG v3.2
  Domain: ALL
  Item: ''
  Release Notes: ''
  Rule: --DY = null
  Rule ID: CG0007
  Rule Version: '1'
  SDTMIG Version: '3.2'
  Section: 4.1.4.4
  Variable: --DY
- Cited Guidance: The permissible Study Day variables (--DY, --STDY, and --ENDY) .
    . . are determined by comparing the date portion of the respective date/time variables
    (--DTC, --STDTC, and --ENDTC) to the date portion of the Subject Reference Start
    Date (RFSTDTC from the Demographics domain).
  Class: ALL
  Condition: The date portion of --DTC ^= complete date or the date portion of DM.RFSTDTC
    ^= complete date
  Document: IG v3.3
  Domain: ALL
  Item: ''
  Release Notes: ''
  Rule: --DY = null
  Rule ID: CG0007
  Rule Version: '1'
  SDTMIG Version: '3.3'
  Section: 4.4.4
  Variable: --DY
- Cited Guidance: The permissible Study Day variables (--DY, --STDY, and --ENDY) .
    . . are determined by comparing the date portion of the respective date/time variables
    (--DTC, --STDTC, and --ENDTC) to the date portion of the Subject Reference Start
    Date (RFSTDTC from the Demographics domain).
  Class: ALL
  Condition: The date portion of --DTC ^= complete date or the date portion of DM.RFSTDTC
    ^= complete date
  Document: IG v3.4
  Domain: ALL
  Item: ''
  Release Notes: No Change
  Rule: --DY = null
  Rule ID: CG0007
  Rule Version: '1'
  SDTMIG Version: '3.4'
  Section: 4.4.4
  Variable: --DY
- Cited Guidance: Planned Elapsed time in ISO 8601 character format relative to a
    planned fixed reference (--TPTREF) such as "Previous Dose" or "Previous Meal".
  Class: ALL
  Condition: --TPTREF = null
  Document: Model v1.4
  Domain: ALL
  Item: 'Table 2.2.5: --ELTM'
  Release Notes: ''
  Rule: --ELTM = null
  Rule ID: CG0008
  Rule Version: '1'
  SDTMIG Version: '3.2'
  Section: 2.2.5
  Variable: --ELTM
- Cited Guidance: Planned Elapsed time relative to a planned fixed reference (--TPTREF)
    such as "Previous Dose" or "Previous Meal". This variable is useful where there
    are repetitive measures. Not a clock time or a date/time variable, but an interval.   Format=ISO8601
  Class: ALL
  Condition: --TPTREF = null
  Document: Model v1.7
  Domain: ALL
  Item: 'Table 2.2.5: --ELTM'
  Release Notes: ''
  Rule: --ELTM = null
  Rule ID: CG0008
  Rule Version: '1'
  SDTMIG Version: '3.3'
  Section: 2.2.5
  Variable: --ELTM
- Cited Guidance: The interval of time between a planned time point and a fixed reference
    point, represented in a standardized character format. The fixed reference point
    is in --TPTREF.
  Class: ALL
  Condition: --TPTREF = null
  Document: Model v2.0
  Domain: ALL
  Item: --ELTM
  Release Notes: Cited guidance updated. Reference to model section and item updated
    per new style.
  Rule: --ELTM = null
  Rule ID: CG0008
  Rule Version: '1'
  SDTMIG Version: '3.4'
  Section: Timing
  Variable: --ELTM
- Cited Guidance: '... EPOCH, as a Timing variable, is the name of the Epoch during
    which --STDTC or --DTC falls. The values of EPOCH are drawn from the Trial Arms
    domain, Section 7.2 - Experimental Design: Trial Arms (TA)'
  Class: ALL
  Condition: ''
  Document: IG v3.2
  Domain: ALL
  Item: DS, Assumption 3.c
  Release Notes: ''
  Rule: EPOCH in TA.EPOCH
  Rule ID: CG0009
  Rule Version: '1'
  SDTMIG Version: '3.2'
  Section: '6.2'
  Variable: EPOCH
- Cited Guidance: EPOCH may be included as a timing variable as in other general-observation-class
    domains. In DS, EPOCH is based on DSSTDTC. The values of EPOCH are drawn from
    the Trial Arms (TA) dataset (Section 7.2.1, Trial Arms).
  Class: ALL
  Condition: ''
  Document: IG v3.3
  Domain: ALL
  Item: DS, Assumption 4.c
  Release Notes: ''
  Rule: EPOCH in TA.EPOCH
  Rule ID: CG0009
  Rule Version: '1'
  SDTMIG Version: '3.3'
  Section: 6.2.3
  Variable: EPOCH
- Cited Guidance: "EPOCH may be included as a timing variable as\_in other general-observation-class\
    \ domains. In DS, EPOCH is based on DSSTDTC. The values of EPOCH are drawn from\
    \ the\_Trial Arms(TA)\_dataset (Section 7.2.1,\_Trial Arms)."
  Class: ALL
  Condition: ''
  Document: IG v3.4
  Domain: ALL
  Item: DS, Assumption 4.c
  Release Notes: No Change
  Rule: EPOCH in TA.EPOCH
  Rule ID: CG0009
  Rule Version: '1'
  SDTMIG Version: '3.4'
  Section: 6.2.3
  Variable: EPOCH
- Cited Guidance: IG v3.2[3.1][Since these roles are predefined for all standard domains
    that follow the general observation classes]|Model v1.4[2][Each variable . . .
    can be classified according to its Role]
  Class: ALL
  Condition: ''
  Document: IG v3.2|Model v1.4
  Domain: ALL
  Item: ''
  Release Notes: '"Metadata attribute of" added into the rule.'
  Rule: Metadata attribute of Variable Role = IG Role for domains in IG, Metadata
    attribute of Variable Role = Model Role for custom domains
  Rule ID: CG0010
  Rule Version: '2'
  SDTMIG Version: '3.2'
  Section: IG v3.2[3.1]|Model v1.4[2]
  Variable: GEN
- Cited Guidance: Each variable can be classified according to its Role. A Role determines
    the type of information conveyed by the variable about each distinct observation
    and how it can be used. Variables can be classified into five major roles.
  Class: ALL
  Condition: ''
  Document: IG v3.3
  Domain: ALL
  Item: ''
  Release Notes: '"Metadata attribute of" added into the rule.'
  Rule: Metadata attribute of Variable Role = IG Role for domains in IG, Metadata
    attribute of Variable Role = Model Role for custom domains
  Rule ID: CG0010
  Rule Version: '2'
  SDTMIG Version: '3.3'
  Section: '2.1'
  Variable: GEN
- Cited Guidance: Each variable can be classified according to its Role. A Role determines
    the type of information conveyed by the variable about each distinct observation
    and how it can be used. Variables can be classified into five major roles.
  Class: ALL
  Condition: ''
  Document: IG v3.4
  Domain: ALL
  Item: ''
  Release Notes: '"Metadata attribute of" added into the rule.'
  Rule: Metadata attribute of Variable Role = IG Role for domains in IG, Metadata
    attribute of Variable Role = Model Role for custom domains
  Rule ID: CG0010
  Rule Version: '2'
  SDTMIG Version: '3.4'
  Section: '2.1'
  Variable: GEN
- Cited Guidance: Following SDTM-specified controlled terminology and format guidelines
    for variables, when provided
  Class: ALL
  Condition: ''
  Document: IG v3.2
  Domain: ALL
  Item: ''
  Release Notes: ''
  Rule: Variable Format = SDTM-specified controlled terminology and format guidelines
    for variables, when provided
  Rule ID: CG0011
  Rule Version: '1'
  SDTMIG Version: '3.2'
  Section: 3.2.2
  Variable: GEN
- Cited Guidance: Following SDTM-specified controlled terminology and format guidelines
    for variables, when provided
  Class: ALL
  Condition: ''
  Document: IG v3.3
  Domain: ALL
  Item: ''
  Release Notes: ''
  Rule: Variable Format = SDTM-specified controlled terminology and format guidelines
    for variables, when provided
  Rule ID: CG0011
  Rule Version: '1'
  SDTMIG Version: '3.3'
  Section: 3.2.2
  Variable: GEN
- Cited Guidance: Following SDTM-specified controlled terminology and format guidelines
    for variables, when provided
  Class: ALL
  Condition: ''
  Document: IG v3.4
  Domain: ALL
  Item: ''
  Release Notes: No Change
  Rule: Variable Format = SDTM-specified controlled terminology and format guidelines
    for variables, when provided
  Rule ID: CG0011
  Rule Version: '1'
  SDTMIG Version: '3.4'
  Section: 3.2.2
  Variable: GEN
- Cited Guidance: IG v3.2[3.2.2][Using SDTM-specified data types for all variables]|Model
    v1.4[2][The data Type (e.g., whether the variable value is a character or numeric)]
  Class: ALL
  Condition: ''
  Document: IG v3.2|Model v1.4
  Domain: ALL
  Item: ''
  Release Notes: ''
  Rule: Variable Type = IG Type for domains in IG, Type = Model Type for custom domains
  Rule ID: CG0012
  Rule Version: '1'
  SDTMIG Version: '3.2'
  Section: IG v3.2[3.2.2]|Model v1.4[2]
  Variable: GEN
- Cited Guidance: IG v3.3[3.2.2][Using SDTM-specified data types for all variables]|Model
    v1.7[2.1][The SDTM describes the name, label, role, and type for the standard
    variables. Note that the SDTM type specified in this document is either character
    or numeric, as these are the only types supported by SAS v.5 transport files.]
  Class: ALL
  Condition: ''
  Document: IG v3.3|Model v1.7
  Domain: ALL
  Item: ''
  Release Notes: ''
  Rule: Variable Type = IG Type for domains in IG, Type = Model Type for custom domains
  Rule ID: CG0012
  Rule Version: '1'
  SDTMIG Version: '3.3'
  Section: IG v3.3[3.2.2]|Model v1.7[2.1]
  Variable: GEN
- Cited Guidance: IG v3.4[3.2.2][Using SDTM-specified data types for all variables]|Model
    v2.0[2.1][Note that the SDTM type specified in this document is either character
    or numeric, as these are the only types supported by SAS v.5 transport files.]
  Class: ALL
  Condition: ''
  Document: IG v3.4|Model v2.0
  Domain: ALL
  Item: ''
  Release Notes: '"The SDTM describes the name, label, role, and type for the standard
    variables." has been removed from the Cited Guidance for the model as it no longer
    appears in the model.'
  Rule: Variable Type = IG Type for domains in IG, Type = Model Type for custom domains
  Rule ID: CG0012
  Rule Version: '1'
  SDTMIG Version: '3.4'
  Section: IG v3.4[3.2.2]|Model v2.0[2.1]
  Variable: GEN
- Cited Guidance: IG v3.2[2.5][Sponsors may not add any other variables. . . . Standard
    variables must not be renamed or modified for novel usage. Using SDTM-specified
    standard variable names.]|Model v1.4[3.2.22][Each observation can be described
    by a series of named variables.]
  Class: ALL
  Condition: ''
  Document: IG v3.2|Model v1.4
  Domain: ALL
  Item: ''
  Release Notes: ''
  Rule: Variable = Model List of Allowed Variables for Observation Class
  Rule ID: CG0013
  Rule Version: '1'
  SDTMIG Version: '3.2'
  Section: IG v3.2[2.5]|Model v1.4[3.2.22]
  Variable: GEN
- Cited Guidance: IG v3.3[2.5][Sponsors may not add any other variables. . . . Standard
    variables must not be renamed or modified for novel usage]|IG v3.3[2.5][[Using
    SDTM-specified standard variable names]|Model v1.7[3.2.2 2.1][Each observation
    can be described by a series of named variables. Domain-specific variables, a
    concept introduced in SDTM v1.5, are for use in a limited number of designated
    domains and will be identified in the appropriate implementation guide.]
  Class: ALL
  Condition: ''
  Document: IG v3.3|Model v1.7
  Domain: ALL
  Item: ''
  Release Notes: ''
  Rule: Variable = Model List of Allowed Variables for Observation Class
  Rule ID: CG0013
  Rule Version: '1'
  SDTMIG Version: '3.3'
  Section: IG v3.3[2.5]|Model v1.7[3.2.2 2.1]
  Variable: GEN
- Cited Guidance: IG v3.4[2.5][Sponsors may not add any variables other than those
    described in the preceding three bullets. . . . Standard variables must not be
    renamed or modified for novel usage.]|Model 2.0[Model Concepts and Terms --Variables][Each
    observation consists of a series of named variables.]|Model 2.0[The General Observation
    Classes]Domain-specific variables, a concept introduced in SDTM v1.5, are for
    use in a limited number of designated domains and will be identified in the appropriate
    implementation guide.]
  Class: ALL
  Condition: ''
  Document: IG v3.4|Model v2.0
  Domain: ALL
  Item: ''
  Release Notes: IG section number updated and citation clarified.  Also updated how
    the section is referred to in SDTM v2.0 per new guidelines.
  Rule: Variable = Model List of Allowed Variables for Observation Class
  Rule ID: CG0013
  Rule Version: '1'
  SDTMIG Version: '3.4'
  Section: 2.5|Model Concepts and Terms --Variables|The General Observation Classes
  Variable: GEN
- Cited Guidance: Required variables must always be included in the dataset and cannot
    be null for any record.
  Class: ALL
  Condition: Variable Core Status = Required
  Document: IG v3.2
  Domain: ALL
  Item: ''
  Release Notes: ''
  Rule: Variable present in dataset and ^= null
  Rule ID: CG0014
  Rule Version: '1'
  SDTMIG Version: '3.2'
  Section: 4.1.1.5
  Variable: GEN
- Cited Guidance: Required variables must always be included in the dataset and cannot
    be null for any record.
  Class: ALL
  Condition: Variable Core Status = Required
  Document: IG v3.3
  Domain: ALL
  Item: ''
  Release Notes: ''
  Rule: Variable present in dataset and ^= null
  Rule ID: CG0014
  Rule Version: '1'
  SDTMIG Version: '3.3'
  Section: 4.1.5
  Variable: GEN
- Cited Guidance: Required variables must always be included in the dataset and cannot
    be null for any record.
  Class: ALL
  Condition: Variable Core Status = Required
  Document: IG v3.4
  Domain: ALL
  Item: ''
  Release Notes: No Change
  Rule: Variable present in dataset and ^= null
  Rule ID: CG0014
  Rule Version: '1'
  SDTMIG Version: '3.4'
  Section: 4.1.5
  Variable: GEN
- Cited Guidance: The sponsor does not have the discretion to exclude permissible
    variables when they contain data.
  Class: ALL
  Condition: Variable Core Status = Permissible and data is collected
  Document: IG v3.2
  Domain: ALL
  Item: ''
  Release Notes: ''
  Rule: Variable present in dataset and ^= null
  Rule ID: CG0015
  Rule Version: '1'
  SDTMIG Version: '3.2'
  Section: 4.1.1.5
  Variable: GEN
- Cited Guidance: The sponsor does not have the discretion to exclude permissible
    variables when they contain data.
  Class: ALL
  Condition: Variable Core Status = Permissible and data is collected
  Document: IG v3.3
  Domain: ALL
  Item: ''
  Release Notes: ''
  Rule: Variable present in dataset and ^= null
  Rule ID: CG0015
  Rule Version: '1'
  SDTMIG Version: '3.3'
  Section: 4.1.5
  Variable: GEN
- Cited Guidance: "If a study\_includes a data item that would be\_represented in\
    \ a Permissible variable, then that\_variable\_must be included in the SDTM dataset,\
    \ even if null. "
  Class: ALL
  Condition: Variable Core Status = Permissible and data is collected
  Document: IG v3.4
  Domain: ALL
  Item: ''
  Release Notes: Text for cited guidance was modified in SDTMIG v3.4
  Rule: Variable present in dataset and ^= null
  Rule ID: CG0015
  Rule Version: '1'
  SDTMIG Version: '3.4'
  Section: 4.1.5
  Variable: GEN
- Cited Guidance: When no data has been collected for an expected variable, however,
    a null column must still be included in the dataset, and a comment must be included
    in the define.xml to state that data was not collected.
  Class: ALL
  Condition: Variable Core Status = Expected
  Document: IG v3.2
  Domain: ALL
  Item: ''
  Release Notes: ''
  Rule: Variable present in dataset
  Rule ID: CG0016
  Rule Version: '1'
  SDTMIG Version: '3.2'
  Section: 4.1.1.5
  Variable: GEN
- Cited Guidance: When no data has been collected for an expected variable, however,
    a null column must still be included in the dataset, and a comment must be included
    in the define.xml to state that data was not collected.
  Class: ALL
  Condition: Variable Core Status = Expected
  Document: IG v3.3
  Domain: ALL
  Item: ''
  Release Notes: ''
  Rule: Variable present in dataset
  Rule ID: CG0016
  Rule Version: '1'
  SDTMIG Version: '3.3'
  Section: 4.1.5
  Variable: GEN
- Cited Guidance: When the study does not include the data item for an expected variable,
    however, a null column must still be included in the dataset, and a comment must
    be included in the Define-XML document to state that the study does not include
    the data item.
  Class: ALL
  Condition: Variable Core Status = Expected
  Document: IG v3.4
  Domain: ALL
  Item: ''
  Release Notes: Text for cited guidance was modified in SDTMIG v3.4
  Rule: Variable present in dataset
  Rule ID: CG0016
  Rule Version: '1'
  SDTMIG Version: '3.4'
  Section: 4.1.5
  Variable: GEN
- Cited Guidance: 4.1.1.7[Split dataset names can be up to four characters in length.
    For example, if splitting by --CAT, then dataset names would be the domain name
    plus up to two additional characters (e.g., QS36 for SF-36). If splitting Findings
    About by parent domain, then the dataset name would be the domain name plus the
    two-character domain code describing the parent domain code (e.g., FACM).]|2[AP
    domain codes are therefore four characters long.]
  Class: NOT (AP)
  Condition: Non-Supplemental Qualifier datasets
  Document: IG v3.2|AP Guide v1.0
  Domain: ALL
  Item: Rule 6
  Release Notes: Class changed to NOT (AP). New rule version 2.
  Rule: Split dataset names length > 2 and <= 4
  Rule ID: CG0017
  Rule Version: '2'
  SDTMIG Version: '3.2'
  Section: 4.1.1.7|2
  Variable: GEN
- Cited Guidance: 4.1.7[Split dataset names can be up to four characters in length.
    For example, if splitting by --CAT, then dataset names would be the domain name
    plus up to two additional characters (e.g., QS36 for SF-36). If splitting Findings
    About by parent domain, then the dataset name would be the domain name plus the
    two-character domain code describing the parent domain code (e.g., FACM).]|2[AP
    domain codes are therefore four characters long.]
  Class: NOT (AP)
  Condition: Non-Supplemental Qualifier datasets
  Document: IG v3.3|AP Guide v1.0
  Domain: ALL
  Item: Rule 6
  Release Notes: Class changed to NOT (AP). New rule version 2.
  Rule: Split dataset names length > 2 and <= 4
  Rule ID: CG0017
  Rule Version: '2'
  SDTMIG Version: '3.3'
  Section: 4.1.7|2
  Variable: GEN
- Cited Guidance: "4.1.7[For domains with two-letter domain codes (i.e., other than\
    \ SUPPxx\_and RELREC), split dataset names can be up to four characters in length...\
    \ The four-character dataset-name limitation allows the use of a Supplemental\
    \ Qualifier dataset associated with the split dataset]|2[AP domain codes are therefore\
    \ four characters long.]"
  Class: NOT (AP)
  Condition: Non-Supplemental Qualifier datasets
  Document: IG v3.4|AP Guide v1.0
  Domain: ALL
  Item: Item 6
  Release Notes: Text for cited guidance was modified in SDTMIG v3.4.  Class changed
    to NOT (AP).  New rule version 2.
  Rule: Split dataset names length > 2 and <= 4
  Rule ID: CG0017
  Rule Version: '2'
  SDTMIG Version: '3.4'
  Section: 4.1.7|2
  Variable: GEN
- Cited Guidance: Supplemental Qualifier datasets for split domains would also be
    split. The nomenclature would include the additional one-to-two characters used
    to identify the split dataset.
  Class: ALL
  Condition: Supplemental Qualifier datasets
  Document: IG v3.2
  Domain: ALL
  Item: Rule 7
  Release Notes: ''
  Rule: Split dataset names length <= 8
  Rule ID: CG0018
  Rule Version: '1'
  SDTMIG Version: '3.2'
  Section: 4.1.1.7
  Variable: GEN
- Cited Guidance: Supplemental Qualifier datasets for split domains would also be
    split. The nomenclature would include the additional one-to-two characters used
    to identify the split dataset.
  Class: ALL
  Condition: Supplemental Qualifier datasets
  Document: IG v3.3
  Domain: ALL
  Item: Rule 7
  Release Notes: ''
  Rule: Split dataset names length <= 8
  Rule ID: CG0018
  Rule Version: '1'
  SDTMIG Version: '3.3'
  Section: 4.1.7
  Variable: GEN
- Cited Guidance: Supplemental Qualifier datasets for split domains would also be
    split. The nomenclature would include the additional one-to-two characters used
    to identify the split dataset.
  Class: ALL
  Condition: Supplemental Qualifier datasets
  Document: IG v3.4
  Domain: ALL
  Item: '7'
  Release Notes: No Change
  Rule: Split dataset names length <= 8
  Rule ID: CG0018
  Rule Version: '1'
  SDTMIG Version: '3.4'
  Section: 4.1.7
  Variable: GEN
- Cited Guidance: Table 3.2.1[Note that the key variables shown in this table are
    examples only. A sponsor's actual key structure may be different.]|3.2.1.1[Since
    the purpose of this column is to aid reviewers in understanding the structure
    of a dataset, sponsors should list all of the natural keys (see definition below)
    for the dataset. These keys should define uniqueness for records within a dataset,
    and may define a record sort order.]
  Class: ALL
  Condition: ''
  Document: IG v3.2
  Domain: ALL
  Item: ''
  Release Notes: ''
  Rule: Each record is unique per sponsor defined key variables as documented in the
    define.xml
  Rule ID: CG0019
  Rule Version: '1'
  SDTMIG Version: '3.2'
  Section: Table 3.2.1|3.2.1.1
  Variable: GEN
- Cited Guidance: Table 3.2.1[Note that the key variables shown in this table are
    examples only. A sponsor's actual key structure may be different.]||3.2.1.1[Since
    the purpose of this column is to aid reviewers in understanding the structure
    of a dataset, sponsors should list all of the natural keys (see definition below)
    for the dataset. These keys should define uniqueness for records within a dataset,
    and may define a record sort order.]
  Class: ALL
  Condition: ''
  Document: IG v3.3
  Domain: ALL
  Item: ''
  Release Notes: ''
  Rule: Each record is unique per sponsor defined key variables as documented in the
    define.xml
  Rule ID: CG0019
  Rule Version: '1'
  SDTMIG Version: '3.3'
  Section: Table 3.2.1|3.2.1.1
  Variable: GEN
- Cited Guidance: Table 3.2.1[Note that the key variables shown in this table are
    examples only. A sponsor's actual key structure may be different.]||3.2.1.1[Since
    the purpose of this column is to aid reviewers in understanding the structure
    of a dataset, sponsors should list all of the natural keys (see definition below)
    for the dataset. These keys should define uniqueness for records within a dataset,
    and may define a record sort order. The identified keys for each dataset should
    be consistent with the description of the dataset structure as described in the
    Define-XML document.]
  Class: ALL
  Condition: ''
  Document: IG v3.4
  Domain: ALL
  Item: ''
  Release Notes: Cited guidance was added for the  Define-XML portion of the rule.
  Rule: Each record is unique per sponsor defined key variables as documented in the
    define.xml
  Rule ID: CG0019
  Rule Version: '1'
  SDTMIG Version: '3.4'
  Section: Table 3.2.1|3.2.1.1
  Variable: GEN
- Cited Guidance: 3.2.2[Conformance with the SDTMIG Domain Models is minimally indicated
    by following SDTM-specified controlled terminology and format guidelines for variables,
    when provided]4.1.2.8.3[The SDTM permits one value for each Qualifier variable
    per record. If multiple values exist (e.g., due to a "Check all that apply" instruction
    on a CRF), then the value for the Qualifier variable should be "MULTIPLE" and
    SUPP-- should be used to store the individual responses.]
  Class: ALL
  Condition: Use of value 'MULTIPLE' is appropriate to the data being represented
  Document: IG v3.2
  Domain: ALL
  Item: ''
  Release Notes: Cited guidance sections added.
  Rule: Value in associated codelist or 'MULTIPLE'
  Rule ID: CG0020
  Rule Version: '1'
  SDTMIG Version: '3.2'
  Section: 3.2.2|4.1.2.8.3
  Variable: GEN
- Cited Guidance: 3.2.2[Conformance with the SDTMIG Domain Models is minimally indicated
    by following SDTM-specified controlled terminology and format guidelines for variables,
    when provided]4.2.8.3[The SDTM permits one value for each Qualifier variable per
    record. If multiple values exist (e.g., due to a "Check all that apply" instruction
    on a CRF), then the value for the Qualifier variable should be "MULTIPLE" and
    SUPP-- should be used to store the individual responses.]
  Class: ALL
  Condition: Use of value 'MULTIPLE' is appropriate to the data being represented
  Document: IG v3.3
  Domain: ALL
  Item: ''
  Release Notes: Cited guidance sections added.
  Rule: Value in associated codelist or 'MULTIPLE'
  Rule ID: CG0020
  Rule Version: '1'
  SDTMIG Version: '3.3'
  Section: 3.2.2|4.2.8.3
  Variable: GEN
- Cited Guidance: 3.2.2[Conformance with the SDTMIG Domain Models is minimally indicated
    by following SDTM-specified controlled terminology and format guidelines for variables,
    when provided]|4.2.8.3[The SDTM permits one value for each Qualifier variable
    per record. If multiple values exist (e.g., due to a "Check all that apply" instruction
    on a CRF), then the value for the Qualifier variable should be "MULTIPLE" and
    SUPP-- should be used to store the individual responses.]
  Class: ALL
  Condition: Use of value 'MULTIPLE' is appropriate to the data being represented
  Document: IG v3.4
  Domain: ALL
  Item: ''
  Release Notes: ''
  Rule: Value in associated codelist or 'MULTIPLE'
  Rule ID: CG0020
  Rule Version: '1'
  SDTMIG Version: '3.4'
  Section: 3.2.2|4.2.8.3
  Variable: GEN
- Cited Guidance: 3.2.2[Conformance with the SDTMIG Domain Models is minimally indicated
    by following SDTM-specified controlled terminology and format guidelines for variables,
    when provided]|4.1.2.7.1[When the CRF includes a list of values for a qualifier
    field that includes "Other" and the "Other" is supplemented with a "Specify" free
    text field,]
  Class: ALL
  Condition: Variable associated with extensible codelist and the use of value 'OTHER'
    is appropriate to the data being represented
  Document: IG v3.2
  Domain: ALL
  Item: ''
  Release Notes: ''
  Rule: Value in associated codelist or 'OTHER'
  Rule ID: CG0021
  Rule Version: '1'
  SDTMIG Version: '3.2'
  Section: 3.2.2|4.1.2.7.1
  Variable: GEN
- Cited Guidance: 3.2.2[Conformance with the SDTMIG Domain Models is minimally indicated
    by following SDTM-specified controlled terminology and format guidelines for variables,
    when provided]|4.2.7.1[When the CRF includes a list of values for a qualifier
    field that includes "Other" and the "Other" is supplemented with a "Specify" free
    text field,]
  Class: ALL
  Condition: Variable associated with extensible codelist and the use of value 'OTHER'
    is appropriate to the data being represented
  Document: IG v3.3
  Domain: ALL
  Item: ''
  Release Notes: ''
  Rule: Value in associated codelist or 'OTHER'
  Rule ID: CG0021
  Rule Version: '1'
  SDTMIG Version: '3.3'
  Section: 3.2.2|4.2.7.1
  Variable: GEN
- Cited Guidance: 3.2.2[Conformance with the SDTMIG Domain Models is minimally indicated
    by following SDTM-specified controlled terminology and format guidelines for variables,
    when provided]|4.2.7.1[When the CRF includes a list of values for a qualifier
    field that includes "Other" and the "Other" is supplemented with a "Specify" free
    text field,]
  Class: ALL
  Condition: Variable associated with extensible codelist and the use of value 'OTHER'
    is appropriate to the data being represented
  Document: IG v3.4
  Domain: ALL
  Item: ''
  Release Notes: No Change
  Rule: Value in associated codelist or 'OTHER'
  Rule ID: CG0021
  Rule Version: '1'
  SDTMIG Version: '3.4'
  Section: 3.2.2|4.2.7.1
  Variable: GEN
- Cited Guidance: Identifier used to link related, grouped records across domains.
  Class: ALL
  Condition: --LNKGRP present in a domain
  Document: IG v3.2
  Domain: ALL
  Item: Specification
  Release Notes: ''
  Rule: --LNKGRP present in another domain
  Rule ID: CG0022
  Rule Version: '1'
  SDTMIG Version: '3.2'
  Section: '6.1'
  Variable: --LNKGRP
- Cited Guidance: --LNKGRP is a grouping identifier used to identify a group of records
    in one domain that is related to a record in another domain, often forming a many-to-one
    relationship.
  Class: ALL
  Condition: --LNKGRP present in a domain
  Document: IG v3.3
  Domain: ALL
  Item: 2.E.2
  Release Notes: ''
  Rule: --LNKGRP present in another domain
  Rule ID: CG0022
  Rule Version: '1'
  SDTMIG Version: '3.3'
  Section: 4.2.6
  Variable: --LNKGRP
- Cited Guidance: --LNKGRP is a grouping identifier used to identify a group of records
    in one domain that is related to a record in another domain, often forming a many-to-one
    relationship.
  Class: ALL
  Condition: --LNKGRP present in a domain
  Document: IG v3.4
  Domain: ALL
  Item: 2.E.2
  Release Notes: No Change
  Rule: --LNKGRP present in another domain
  Rule ID: CG0022
  Rule Version: '1'
  SDTMIG Version: '3.4'
  Section: 4.2.6
  Variable: --LNKGRP
- Cited Guidance: Identifier used to link related records across domains.
  Class: ALL
  Condition: --LNKID present in a domain
  Document: IG v3.2
  Domain: ALL
  Item: Specification
  Release Notes: ''
  Rule: --LNKID present in another domain
  Rule ID: CG0024
  Rule Version: '1'
  SDTMIG Version: '3.2'
  Section: '6.1'
  Variable: --LNKID
- Cited Guidance: --LNKID is a grouping identifier used to identify a record in one
    domain that is related to records in another domain, often forming a one-to-many
    relationship.
  Class: ALL
  Condition: --LNKID present in a domain
  Document: IG v3.3
  Domain: ALL
  Item: 2.E.1
  Release Notes: ''
  Rule: --LNKID present in another domain
  Rule ID: CG0024
  Rule Version: '1'
  SDTMIG Version: '3.3'
  Section: 4.2.6
  Variable: --LNKID
- Cited Guidance: --LNKID is a grouping identifier used to identify a record in one
    domain that is related to records in another domain, often forming a one-to-many
    relationship.
  Class: ALL
  Condition: --LNKID present in a domain
  Document: IG v3.4
  Domain: ALL
  Item: 2.E.1
  Release Notes: No Change
  Rule: --LNKID present in another domain
  Rule ID: CG0024
  Rule Version: '1'
  SDTMIG Version: '3.4'
  Section: 4.2.6
  Variable: --LNKID
- Cited Guidance: Date/time for a fixed reference time point defined by --TPTREF in
    ISO 8601 character format.
  Class: ALL
  Condition: --TPTREF = null
  Document: Model v1.4
  Domain: ALL
  Item: 'Table 2.2.5: --RFTDTC'
  Release Notes: ''
  Rule: --RFTDTC = null
  Rule ID: CG0026
  Rule Version: '1'
  SDTMIG Version: '3.2'
  Section: 2.2.5
  Variable: --RFTDTC
- Cited Guidance: Date/time for a fixed reference time point defined by --TPTREF
  Class: ALL
  Condition: --TPTREF = null
  Document: Model v1.7
  Domain: ALL
  Item: --RFTDTC
  Release Notes: ''
  Rule: --RFTDTC = null
  Rule ID: CG0026
  Rule Version: '1'
  SDTMIG Version: '3.3'
  Section: 2.2.5
  Variable: --RFTDTC
- Cited Guidance: "The actual date or date and time of a time point that acts as a\
    \ fixed reference for a series of planned time points, represented in a standardized\
    \ character format.\_The fixed reference point is in --TPTREF."
  Class: ALL
  Condition: --TPTREF = null
  Document: Model v2.0
  Domain: ALL
  Item: --RFTDTC
  Release Notes: Cited guidance updated. Reference to model section and item updated
    per new style.
  Rule: --RFTDTC = null
  Rule ID: CG0026
  Rule Version: '1'
  SDTMIG Version: '3.4'
  Section: Timing
  Variable: --RFTDTC
- Cited Guidance: Used to define a further categorization of --CAT values.
  Class: ALL
  Condition: --SCAT ^= null
  Document: Model v1.4
  Domain: ALL
  Item: 'Table 2.2.1: --SCAT'
  Release Notes: ''
  Rule: --SCAT ^= --CAT
  Rule ID: CG0027
  Rule Version: '1'
  SDTMIG Version: '3.2'
  Section: 2.2.1
  Variable: --SCAT
- Cited Guidance: Used to define a further categorization of --CAT values.
  Class: ALL
  Condition: --SCAT ^= null
  Document: Model v1.7
  Domain: ALL
  Item: --SCAT
  Release Notes: ''
  Rule: --SCAT ^= --CAT
  Rule ID: CG0027
  Rule Version: '1'
  SDTMIG Version: '3.3'
  Section: 2.2.1
  Variable: --SCAT
- Cited Guidance: A further grouping or classification of the category for the topic
    of the finding, event, or intervention. The category is in --CAT.
  Class: ALL
  Condition: --SCAT ^= null
  Document: Model v2.0
  Domain: ALL
  Item: --SCAT
  Release Notes: Cited guidance updated. Reference to model section and item updated
    per new style.
  Rule: --SCAT ^= --CAT
  Rule ID: CG0027
  Rule Version: '1'
  SDTMIG Version: '3.4'
  Section: Interventions
  Variable: --SCAT
- Cited Guidance: Sequence number to ensure uniqueness of records within a dataset
    for a subject (or within a parameter, in the case of the Trial Summary domain).
    May be any valid number (including decimals) and does not have to start at 1.
  Class: ALL
  Condition: Variable is not TS.TSSEQ
  Document: Model v1.4
  Domain: ALL
  Item: 'Table 2.2.4: --SEQ'
  Release Notes: ''
  Rule: --SEQ is a unique number per USUBJID per domain, or a unique number per POOLID
    per domain, including when the domain is split into multiple files
  Rule ID: CG0028
  Rule Version: '1'
  SDTMIG Version: '3.2'
  Section: 2.2.4
  Variable: --SEQ
- Cited Guidance: Sequence number to ensure uniqueness of records within a dataset
    for a subject (or within a parameter, in the case of the Trial Summary domain).
    May be any valid number (including decimals) and does not have to start at 1.
  Class: ALL
  Condition: Variable is not TS.TSSEQ
  Document: Model v1.7
  Domain: ALL
  Item: --SEQ
  Release Notes: ''
  Rule: --SEQ is a unique number per USUBJID per domain, or a unique number per POOLID
    per domain, including when the domain is split into multiple files
  Rule ID: CG0028
  Rule Version: '1'
  SDTMIG Version: '3.3'
  Section: 2.2.4
  Variable: --SEQ
- Cited Guidance: "A number used to uniquely identify records for a subject within\
    \ a domain.\_The Trial Summary domain does not contain subject data, and TSSEQ\
    \ is a sequence number to ensure uniqueness within the dataset."
  Class: ALL
  Condition: Variable is not TS.TSSEQ
  Document: Model v2.0
  Domain: ALL
  Item: --SEQ
  Release Notes: Cited guidance updated. Reference to model section and item updated
    per new style.
  Rule: --SEQ is a unique number per USUBJID per domain, or a unique number per POOLID
    per domain, including when the domain is split into multiple files
  Rule ID: CG0028
  Rule Version: '1'
  SDTMIG Version: '3.4'
  Section: Identifiers
  Variable: --SEQ
- Cited Guidance: '... a unique identifier (USUBJID) should be assigned and included
    in all datasets. The unique subject identifier (USUBJID) is required in all datasets
    containing subject-level data.'
  Class: ALL
  Condition: Domain Not in ('AP--')
  Document: IG v3.2
  Domain: ALL
  Item: ''
  Release Notes: ''
  Rule: USUBJID in DM.USUBJID
  Rule ID: CG0029
  Rule Version: '1'
  SDTMIG Version: '3.2'
  Section: 4.1.2.3
  Variable: USUBJID
- Cited Guidance: The unique subject identifier (USUBJID) is required in all datasets
    containing subject-level data. USUBJID values must be unique for each trial participant
    (subject) across all trials in the submission.
  Class: ALL
  Condition: Domain Not in ('AP--')
  Document: IG v3.3
  Domain: ALL
  Item: ''
  Release Notes: ''
  Rule: USUBJID in DM.USUBJID
  Rule ID: CG0029
  Rule Version: '1'
  SDTMIG Version: '3.3'
  Section: 4.2.3
  Variable: USUBJID
- Cited Guidance: The unique subject identifier (USUBJID) is required in all datasets
    containing subject-level data. USUBJID values must be unique for each trial participant
    (subject) across all trials in the submission.
  Class: ALL
  Condition: Domain Not in ('AP--')
  Document: IG v3.4
  Domain: ALL
  Item: ''
  Release Notes: No Change
  Rule: USUBJID in DM.USUBJID
  Rule ID: CG0029
  Rule Version: '1'
  SDTMIG Version: '3.4'
  Section: 4.2.3
  Variable: USUBJID
- Cited Guidance: For planned visits, values of VISIT, VISITNUM, and VISITDY must
    be those defined in the Trial Visits dataset,
  Class: ALL
  Condition: VISIT ^= null and is planned
  Document: IG v3.2
  Domain: ALL
  Item: ''
  Release Notes: ''
  Rule: VISIT in TV.VISIT
  Rule ID: CG0031
  Rule Version: '1'
  SDTMIG Version: '3.2'
  Section: 4.1.4.5
  Variable: VISIT
- Cited Guidance: For planned visits, values of VISIT, VISITNUM, and VISITDY must
    be those defined in the Trial Visits dataset,
  Class: ALL
  Condition: VISIT ^= null and is planned
  Document: IG v3.3
  Domain: ALL
  Item: ''
  Release Notes: ''
  Rule: VISIT in TV.VISIT
  Rule ID: CG0031
  Rule Version: '1'
  SDTMIG Version: '3.3'
  Section: 4.4.5
  Variable: VISIT
- Cited Guidance: For planned visits, values of VISIT, VISITNUM, and VISITDY must
    be those defined in the Trial Visits (TV) dataset (Section 7.3.1, Trial Visits).
  Class: ALL
  Condition: VISIT ^= null and is planned
  Document: IG v3.4
  Domain: ALL
  Item: ''
  Release Notes: Text for cited guidance was slightly modified in SDTMIG v3.4
  Rule: VISIT in TV.VISIT
  Rule ID: CG0031
  Rule Version: '1'
  SDTMIG Version: '3.4'
  Section: 4.4.5
  Variable: 'VISIT '
- Cited Guidance: For planned visits, values of VISIT, VISITNUM, and VISITDY must
    be those defined in the Trial Visits dataset,
  Class: ALL
  Condition: VISITNUM is in TV.VISITNUM
  Document: IG v3.2
  Domain: ALL
  Item: ''
  Release Notes: Changed variable column from VISIT to VISITDY since the rule is about
    VISITDY. Upversioned rule.
  Rule: VISITDY = TV.VISITDY
  Rule ID: CG0032
  Rule Version: '2'
  SDTMIG Version: '3.2'
  Section: 4.1.4.5
  Variable: VISITDY
- Cited Guidance: For planned visits, values of VISIT, VISITNUM, and VISITDY must
    be those defined in the Trial Visits dataset,
  Class: ALL
  Condition: VISITNUM is in TV.VISITNUM
  Document: IG v3.3
  Domain: ALL
  Item: ''
  Release Notes: Changed variable column from VISIT to VISITDY since the rule is about
    VISITDY. Upversioned rule.
  Rule: VISITDY = TV.VISITDY
  Rule ID: CG0032
  Rule Version: '2'
  SDTMIG Version: '3.3'
  Section: 4.4.5
  Variable: VISITDY
- Cited Guidance: For planned visits, values of VISIT, VISITNUM, and VISITDY must
    be those defined in the Trial Visits (TV) dataset (Section 7.3.1, Trial Visits).
  Class: ALL
  Condition: VISITNUM is in TV.VISITNUM
  Document: IG v3.4
  Domain: ALL
  Item: ''
  Release Notes: Changed variable column from VISIT to VISITDY since the rule is about
    VISITDY. Upversioned rule. Text for cited guidance was slightly modified in SDTMIG
    v3.4
  Rule: VISITDY = TV.VISITDY
  Rule ID: CG0032
  Rule Version: '2'
  SDTMIG Version: '3.4'
  Section: 4.4.5
  Variable: VISITDY
- Cited Guidance: For planned visits, values of VISIT, VISITNUM, and VISITDY must
    be those defined in the Trial Visits dataset.
  Class: ALL
  Condition: VISITNUM ^= null and is planned
  Document: IG v3.2
  Domain: ALL
  Item: ''
  Release Notes: Changed variable column from VISIT to VISITNUM since the rule is
    about VISITNUM. Upversioned rule.
  Rule: VISITNUM in TV.VISITNUM
  Rule ID: CG0033
  Rule Version: '2'
  SDTMIG Version: '3.2'
  Section: 4.1.4.5
  Variable: VISITNUM
- Cited Guidance: For planned visits, values of VISIT, VISITNUM, and VISITDY must
    be those defined in the Trial Visits dataset.
  Class: ALL
  Condition: VISITNUM ^= null and is planned
  Document: IG v3.3
  Domain: ALL
  Item: ''
  Release Notes: Changed variable column from VISIT to VISITNUM since the rule is
    about VISITNUM. Upversioned rule.
  Rule: VISITNUM in TV.VISITNUM
  Rule ID: CG0033
  Rule Version: '2'
  SDTMIG Version: '3.3'
  Section: 4.4.5
  Variable: VISITNUM
- Cited Guidance: For planned visits, values of VISIT, VISITNUM, and VISITDY must
    be those defined in the Trial Visits (TV) dataset (Section 7.3.1, Trial Visits).
  Class: ALL
  Condition: VISITNUM ^= null and is planned
  Document: IG v3.4
  Domain: ALL
  Item: ''
  Release Notes: Changed variable column from VISIT to VISITNUM since the rule is
    about VISITNUM. Upversioned rule. Text for cited guidance was slightly modified
    in SDTMIG v3.4
  Rule: VISITNUM in TV.VISITNUM
  Rule ID: CG0033
  Rule Version: '2'
  SDTMIG Version: '3.4'
  Section: 4.4.5
  Variable: VISITNUM
- Cited Guidance: The Subject Visits domain consolidates information about the timing
    of subject visits that is otherwise spread over domains that include the visit
    variables (VISITNUM and possibly VISIT and/or VISITDY).
  Class: ALL
  Condition: VISITNUM ^= null
  Document: IG v3.2
  Domain: ALL
  Item: ''
  Release Notes: Changed variable column from VISIT to VISITNUM since the rule is
    about VISITNUM. Upversioned rule.
  Rule: VISITNUM in SV.VISITNUM
  Rule ID: CG0034
  Rule Version: '2'
  SDTMIG Version: '3.2'
  Section: '5'
  Variable: VISITNUM
- Cited Guidance: The Subject Visits domain consolidates information about the timing
    of subject visits that is otherwise spread over domains that include the visit
    variables (VISITNUM and possibly VISIT and/or VISITDY).
  Class: ALL
  Condition: VISITNUM ^= null
  Document: IG v3.3
  Domain: ALL
  Item: ''
  Release Notes: Changed variable column from VISIT to VISITNUM since the rule is
    about VISITNUM. Upversioned rule.
  Rule: VISITNUM in SV.VISITNUM
  Rule ID: CG0034
  Rule Version: '2'
  SDTMIG Version: '3.3'
  Section: '5.5'
  Variable: VISITNUM
- Cited Guidance: The Subject Visits domain consolidates information about the timing
    of subject visits that is otherwise spread over domains that include the visit
    variables (VISITNUM and possibly VISIT and/or VISITDY).
  Class: ALL
  Condition: VISITNUM ^= null
  Document: IG v3.4
  Domain: ALL
  Item: ''
  Release Notes: Changed variable column from VISIT to VISITNUM since the rule is
    about VISITNUM. Upversioned rule.
  Rule: VISITNUM in SV.VISITNUM
  Rule ID: CG0034
  Rule Version: '2'
  SDTMIG Version: '3.4'
  Section: '5.5'
  Variable: VISITNUM
- Cited Guidance: There should be a one-to-one relationship between values of VISIT
    and VISITNUM.
  Class: ALL
  Condition: VISITNUM in TV.VISITNUM
  Document: IG v3.2
  Domain: ALL
  Item: ''
  Release Notes: ''
  Rule: VISIT and VISITNUM have a one-to-one relationship
  Rule ID: CG0035
  Rule Version: '1'
  SDTMIG Version: '3.2'
  Section: 4.1.4.5
  Variable: VISITNUM
- Cited Guidance: There should be a one-to-one relationship between values of VISIT
    and VISITNUM.
  Class: ALL
  Condition: VISITNUM in TV.VISITNUM
  Document: IG v3.3
  Domain: ALL
  Item: ''
  Release Notes: ''
  Rule: VISIT and VISITNUM have a one-to-one relationship
  Rule ID: CG0035
  Rule Version: '1'
  SDTMIG Version: '3.3'
  Section: 4.4.5
  Variable: VISITNUM
- Cited Guidance: There should be a one-to-one relationship between values of VISIT
    and VISITNUM.
  Class: ALL
  Condition: VISITNUM in TV.VISITNUM
  Document: IG v3.4
  Domain: ALL
  Item: ''
  Release Notes: No Change
  Rule: VISIT and VISITNUM have a one-to-one relationship
  Rule ID: CG0035
  Rule Version: '1'
  SDTMIG Version: '3.4'
  Section: 4.4.5
  Variable: VISITNUM
- Cited Guidance: 'IG v3.2[6.2 AE][Specification][IG: Dictionary derived. Code for
    body system or organ class used by the sponsor from the coding dictionary (e.g.,
    MedDRA). When using a multi-axial dictionary such as MedDRA, this should contain
    the SOC used for the sponsor''s analyses and summary tables which may not necessarily
    be the primary SOC.]|Model v1.4[2.2.2][Table 2.2.2: --BDSYCD][Model:MedDRA System
    Organ Class code corresponding to --BODSYS assigned for analysis.]'
  Class: EVT
  Condition: Primary SOC used for analysis
  Document: IG v3.2|Model v1.4
  Domain: NOT(DS, DV, HO)
  Item: 'IG v3.2[6.2 AE][Specification]|Model v1.4[2.2.2][Table 2.2.2: --BDSYCD]'
  Release Notes: ''
  Rule: --SOCCD = --BDSYCD
  Rule ID: CG0037
  Rule Version: '1'
  SDTMIG Version: '3.2'
  Section: IG v3.2[6.2 AE]|Model v1.4[2.2.2]
  Variable: --BDSYCD
- Cited Guidance: 'IG v3.3[6.2.1][Specification][Dictionary derived. Code for body
    system or organ class used by the sponsor from the coding dictionary (e.g., MedDRA).
    When using a multi-axial dictionary such as MedDRA, this should contain the SOC
    used for the sponsor''s analyses and summary tables which may not necessarily
    be the primary SOC.]|Model v1.7[2.2.2][Table 2.2.2.1: -BDSYCD][Model:MedDRA System
    Organ Class code corresponding to --BODSYS assigned for analysis.]'
  Class: EVT
  Condition: Primary SOC used for analysis
  Document: IG v3.3|Model v1.7
  Domain: NOT(DS, DV, HO)
  Item: 'IG v3.3[6.2.1][Specification]|Model v1.7[2.2.2][Table 2.2.2.1: -BDSYCD]'
  Release Notes: ''
  Rule: --SOCCD = --BDSYCD
  Rule ID: CG0037
  Rule Version: '1'
  SDTMIG Version: '3.3'
  Section: IG v3.3[6.2.1]|Model v1.7[2.2.2]
  Variable: --BDSYCD
- Cited Guidance: IG v3.4[6.2.1][Specification][Dictionary derived. Code for the body
    system or organ class used by the sponsor. When using a multi-axial dictionary
    such as MedDRA, this should contain the SOC used for the sponsor's analyses and
    summary tables, which may not necessarily be the primary SOC.]|Model v2.0[Events][--BDSYCD][MedDRA
    System Organ Class code corresponding to --BODSYS assigned for analysis.]
  Class: EVT
  Condition: Primary SOC used for analysis
  Document: IG v3.4|Model v2.0
  Domain: 'NOT(DS, DV, HO)  '
  Item: Specification|--BDSYCD
  Release Notes: IG cited guidance updated and switched order of variables in rule.
    Model reference updated to current style. Switched the order of the variables
    around the equals sign in the rule to be consistent with how the rule reads for
    v3.2 and v3.3.
  Rule: --SOCCD = --BDSYCD
  Rule ID: CG0037
  Rule Version: '1'
  SDTMIG Version: '3.4'
  Section: Events
  Variable: --BDSYCD
- Cited Guidance: 'IG v3.2[6.2 AE][Specification][Dictionary derived. Body system
    or organ class used by the sponsor from the coding dictionary (e.g., MedDRA).
    When using a multi-axial dictionary such as MedDRA, this should contain the SOC
    used for the sponsor''s analyses and summary tables which may not necessarily
    be the primary SOC.]|Model v1.4[2.2.2][Table 2.2.2: --BODSYS][Model: Body system
    or system organ class assigned for analysis from a standard hierarchy (e.g. MedDRA)
    associated with an event.]'
  Class: EVT
  Condition: Primary SOC used for analysis
  Document: IG v3.2|Model v1.4
  Domain: NOT(DS, DV, HO)
  Item: 'IG v3.2[6.2 AE][Specification]|Model v1.4[2.2.2][Table 2.2.2: --BODSYS]'
  Release Notes: ''
  Rule: --BODSYS = --SOC
  Rule ID: CG0039
  Rule Version: '1'
  SDTMIG Version: '3.2'
  Section: IG v3.2[6.2 AE]|Model v1.4[2.2.2]
  Variable: --BODSYS
- Cited Guidance: 'IG v3.3[6.2.1][Specification][Dictionary derived. Body system or
    organ class used by the sponsor from the coding dictionary (e.g., MedDRA). When
    using a multi-axial dictionary such as MedDRA, this should contain the SOC used
    for the sponsor''s analyses and summary tables which may not necessarily be the
    primary SOC.]|Model v1.7[2.2.2][Table 2.2.2.1: --BODSYS][Model: Body system or
    system organ class assigned for analysis from a standard hierarchy (e.g. MedDRA)
    associated with an event.]'
  Class: EVT
  Condition: Primary SOC used for analysis
  Document: IG v3.3|Model v1.7
  Domain: NOT(DS, DV, HO)
  Item: 'IG v3.3[6.2.1][Specification]|Model v1.7[2.2.2][Table 2.2.2.1: --BODSYS]'
  Release Notes: ''
  Rule: --BODSYS = --SOC
  Rule ID: CG0039
  Rule Version: '1'
  SDTMIG Version: '3.3'
  Section: IG v3.3[6.2.1]|Model v1.7[2.2.2]
  Variable: --BODSYS
- Cited Guidance: IG v3.4[6.2.1][Specification][Dictionary derived. Body system or
    organ class used by the sponsor from the coding dictionary (e.g., MedDRA). When
    using a multi-axial dictionary such as MedDRA, this should contain the SOC used
    for the sponsor's analyses and summary tables which may not necessarily be the
    primary SOC.]|Model v2.0[Events][--BODSYS][Body system or system organ class assigned
    for analysis from a standard hierarchy (e.g. MedDRA) associated with an event.]
  Class: EVT
  Condition: Primary SOC used for analysis
  Document: IG v3.4|Model v2.0
  Domain: 'NOT(DS, DV, HO)  '
  Item: Specification|--BODSYS
  Release Notes: Text for cited guidance was slightly modified in SDTMIG v3.4. Model
    reference updated to current style.
  Rule: --BODSYS = --SOC
  Rule ID: CG0039
  Rule Version: '1'
  SDTMIG Version: '3.4'
  Section: 6.2.1|Events
  Variable: --BODSYS
- Cited Guidance: 'The following Qualifiers would not be used in AE: --OCCUR, --STAT,
    and--REASND. They are the only Qualifiers from the SDTM Events Class not in the
    AE domain. They are not permitted because the AE domain contains only records
    for adverse events that actually occurred.'
  Class: EVT
  Condition: ''
  Document: IG v3.2
  Domain: AE
  Item: Assumption 8
  Release Notes: ''
  Rule: AEOCCUR not present in dataset
  Rule ID: CG0040
  Rule Version: '1'
  SDTMIG Version: '3.2'
  Section: '6.2'
  Variable: AEOCCUR
- Cited Guidance: 'The following Qualifiers would not be used in AE: --OCCUR, --STAT,
    and--REASND. They are the only Qualifiers from the SDTM Events Class not in the
    AE domain. They are not permitted because the AE domain contains only records
    for adverse events that actually occurred.'
  Class: EVT
  Condition: ''
  Document: IG v3.3
  Domain: AE
  Item: Assumption 9
  Release Notes: ''
  Rule: AEOCCUR not present in dataset
  Rule ID: CG0040
  Rule Version: '1'
  SDTMIG Version: '3.3'
  Section: 6.2.1
  Variable: AEOCCUR
- Cited Guidance: 'The following Qualifiers would not be used in AE: --OCCUR, --STAT,
    and--REASND. They are the only Qualifiers from the SDTM Events Class not in the
    AE domain. They are not permitted because the AE domain contains only records
    for adverse events that actually occurred.'
  Class: EVT
  Condition: ''
  Document: IG v3.4
  Domain: AE
  Item: Assumption 9
  Release Notes: No Change
  Rule: AEOCCUR not present in dataset
  Rule ID: CG0040
  Rule Version: '1'
  SDTMIG Version: '3.4'
  Section: 6.2.1
  Variable: AEOCCUR
- Cited Guidance: If categories of serious events are collected secondarily to a leading
    question, as in the example below, the values of the variables that capture reasons
    an event is considered serious (i.e., AESCAN, AESCONG, etc.) may be null. For
    example, if Serious is answered "No, " the values for these variables may be null.
    However, if Serious is answered "Yes, " at least one of them will have a "Y" response.
  Class: EVT
  Condition: AESCAN = 'Y' or AESCONG = 'Y' or AESDISAB = 'Y' or AESDTH = 'Y' or AESHOSP
    = 'Y' or AESLIFE = 'Y' or AESOD = 'Y' or AESMIE = 'Y'
  Document: IG v3.2
  Domain: AE
  Item: Assumption 6a
  Release Notes: ''
  Rule: AESER = 'Y'
  Rule ID: CG0041
  Rule Version: '1'
  SDTMIG Version: '3.2'
  Section: '6.2'
  Variable: AESER
- Cited Guidance: If categories of serious events are collected secondarily to a leading
    question, as in the example below, the values of the variables that capture reasons
    an event is considered serious (i.e., AESCAN, AESCONG, etc.) may be null. For
    example, if Serious is answered "No, " the values for these variables may be null.
    However, if Serious is answered "Yes, " at least one of them will have a "Y" response.
  Class: EVT
  Condition: AESCAN = 'Y' or AESCONG = 'Y' or AESDISAB = 'Y' or AESDTH = 'Y' or AESHOSP
    = 'Y' or AESLIFE = 'Y' or AESOD = 'Y' or AESMIE = 'Y'
  Document: IG v3.3
  Domain: AE
  Item: Assumption 6a
  Release Notes: ''
  Rule: AESER = 'Y'
  Rule ID: CG0041
  Rule Version: '1'
  SDTMIG Version: '3.3'
  Section: 6.2.1
  Variable: AESER
- Cited Guidance: If categories of serious events are collected secondarily to a leading
    question, as in the example below, the values of the variables that capture reasons
    an event is considered serious (i.e., AESCAN, AESCONG, etc.) may be null. For
    example, if Serious is answered "No, " the values for these variables may be null.
    However, if Serious is answered "Yes, " at least one of them will have a "Y" response.
  Class: EVT
  Condition: AESCAN = 'Y' or AESCONG = 'Y' or AESDISAB = 'Y' or AESDTH = 'Y' or AESHOSP
    = 'Y' or AESLIFE = 'Y' or AESOD = 'Y' or AESMIE = 'Y'
  Document: IG v3.4
  Domain: AE
  Item: Assumption 6a
  Release Notes: No Change
  Rule: AESER = 'Y'
  Rule ID: CG0041
  Rule Version: '1'
  SDTMIG Version: '3.4'
  Section: 6.2.1
  Variable: AESER
- Cited Guidance: If categories of serious events are collected secondarily to a leading
    question, as in the example below, the values of the variables that capture reasons
    an event is considered serious (i.e., AESCAN, AESCONG, etc.) may be null. For
    example, if Serious is answered "No, " the values for these variables may be null.
    However, if Serious is answered "Yes, " at least one of them will have a "Y" response.
  Class: EVT
  Condition: AESCAN ^= 'Y' and AESCONG ^= 'Y' and AESDISAB ^= 'Y' and AESDTH ^= 'Y'
    and AESHOSP ^= 'Y' and AESLIFE ^= 'Y' and AESOD ^= 'Y' and AESMIE ^= 'Y'
  Document: IG v3.2
  Domain: AE
  Item: Assumption 6a
  Release Notes: ''
  Rule: AESER = 'N'
  Rule ID: CG0042
  Rule Version: '1'
  SDTMIG Version: '3.2'
  Section: '6.2'
  Variable: AESER
- Cited Guidance: If categories of serious events are collected secondarily to a leading
    question, as in the example below, the values of the variables that capture reasons
    an event is considered serious (i.e., AESCAN, AESCONG, etc.) may be null. For
    example, if Serious is answered "No, " the values for these variables may be null.
    However, if Serious is answered "Yes, " at least one of them will have a "Y" response.
  Class: EVT
  Condition: AESCAN ^= 'Y' and AESCONG ^= 'Y' and AESDISAB ^= 'Y' and AESDTH ^= 'Y'
    and AESHOSP ^= 'Y' and AESLIFE ^= 'Y' and AESOD ^= 'Y' and AESMIE ^= 'Y'
  Document: IG v3.3
  Domain: AE
  Item: Assumption 6a
  Release Notes: ''
  Rule: AESER = 'N'
  Rule ID: CG0042
  Rule Version: '1'
  SDTMIG Version: '3.3'
  Section: 6.2.1
  Variable: AESER
- Cited Guidance: If categories of serious events are collected secondarily to a leading
    question, as in the example below, the values of the variables that capture reasons
    an event is considered serious (i.e., AESCAN, AESCONG, etc.) may be null. For
    example, if Serious is answered "No, " the values for these variables may be null.
    However, if Serious is answered "Yes, " at least one of them will have a "Y" response.
  Class: EVT
  Condition: AESCAN ^= 'Y' and AESCONG ^= 'Y' and AESDISAB ^= 'Y' and AESDTH ^= 'Y'
    and AESHOSP ^= 'Y' and AESLIFE ^= 'Y' and AESOD ^= 'Y' and AESMIE ^= 'Y'
  Document: IG v3.4
  Domain: AE
  Item: Assumption 6a
  Release Notes: No Change
  Rule: AESER = 'N'
  Rule ID: CG0042
  Rule Version: '1'
  SDTMIG Version: '3.4'
  Section: 6.2.1
  Variable: AESER
- Cited Guidance: When a description of Other Medically Important Serious Adverse
    Events category is collected on a CRF, sponsors should place the description in
    the SUPPAE dataset using the standard supplemental qualifier name code AESOSP.
  Class: EVT
  Condition: Record present in SUPPAE where SUPPAE.QNAM=AESOSP
  Document: IG v3.2
  Domain: AE
  Item: Assumption 6c
  Release Notes: ''
  Rule: AESMIE = 'Y'
  Rule ID: CG0043
  Rule Version: '1'
  SDTMIG Version: '3.2'
  Section: '6.2'
  Variable: AESMIE
- Cited Guidance: When a description of Other Medically Important Serious Adverse
    Events category is collected on a CRF, sponsors should place the description in
    the SUPPAE dataset using the standard supplemental qualifier name code AESOSP.
  Class: EVT
  Condition: Record present in SUPPAE where SUPPAE.QNAM=AESOSP
  Document: IG v3.3
  Domain: AE
  Item: Assumption 6c
  Release Notes: ''
  Rule: AESMIE = 'Y'
  Rule ID: CG0043
  Rule Version: '1'
  SDTMIG Version: '3.3'
  Section: 6.2.1
  Variable: AESMIE
- Cited Guidance: When a description of Other Medically Important Serious Adverse
    Events category is collected on a CRF, sponsors should place the description in
    the SUPPAE dataset using the standard supplemental qualifier name code AESOSP.
  Class: EVT
  Condition: Record present in SUPPAE where SUPPAE.QNAM=AESOSP
  Document: IG v3.4
  Domain: AE
  Item: Asumtpion 6c
  Release Notes: No Change
  Rule: AESMIE = 'Y'
  Rule ID: CG0043
  Rule Version: '1'
  SDTMIG Version: '3.4'
  Section: 6.2.1
  Variable: AESMIE
- Cited Guidance: 'The following Qualifiers would not be used in AE: --OCCUR, --STAT,
    and--REASND. They are the only Qualifiers from the SDTM Events Class not in the
    AE domain. They are not permitted because the AE domain contains only records
    for adverse events that actually occurred.'
  Class: EVT
  Condition: ''
  Document: IG v3.2
  Domain: AE
  Item: Assumption 8
  Release Notes: ''
  Rule: AESTAT not present in dataset
  Rule ID: CG0044
  Rule Version: '1'
  SDTMIG Version: '3.2'
  Section: '6.2'
  Variable: AESTAT
- Cited Guidance: 'The following Qualifiers would not be used in AE: --OCCUR, --STAT,
    and--REASND. They are the only Qualifiers from the SDTM Events Class not in the
    AE domain. They are not permitted because the AE domain contains only records
    for adverse events that actually occurred.'
  Class: EVT
  Condition: ''
  Document: IG v3.3
  Domain: AE
  Item: Assumption 9
  Release Notes: ''
  Rule: AESTAT not present in dataset
  Rule ID: CG0044
  Rule Version: '1'
  SDTMIG Version: '3.3'
  Section: 6.2.1
  Variable: AESTAT
- Cited Guidance: 'The following Qualifiers would not be used in AE: --OCCUR, --STAT,
    and--REASND. They are the only Qualifiers from the SDTM Events Class not in the
    AE domain. They are not permitted because the AE domain contains only records
    for adverse events that actually occurred.'
  Class: EVT
  Condition: ''
  Document: IG v3.4
  Domain: AE
  Item: Assumption 9
  Release Notes: No Change
  Rule: AESTAT not present in dataset
  Rule ID: CG0044
  Rule Version: '1'
  SDTMIG Version: '3.4'
  Section: 6.2.1
  Variable: AESTAT
- Cited Guidance: (--ENRTPT) Identifies the end of the observation as being before
    or after the sponsor-defined reference time point defined by variable --ENTPT.
  Class: ALL
  Condition: --ENTPT ^= null
  Document: Model v1.4
  Domain: ALL
  Item: Specification
  Release Notes: ''
  Rule: --ENRTPT ^= null
  Rule ID: CG0045
  Rule Version: '1'
  SDTMIG Version: '3.2'
  Section: 2.2.5 Timing Variables for All Classes
  Variable: --ENRTPT
- Cited Guidance: Identifies the end of the observation as being before or after the
    sponsor-defined reference time point defined by variable --ENTPT.
  Class: ALL
  Condition: --ENTPT ^= null
  Document: Model v1.7
  Domain: ALL
  Item: 'Table 2.2.5.1: --ENRTPT'
  Release Notes: ''
  Rule: --ENRTPT ^= null
  Rule ID: CG0045
  Rule Version: '1'
  SDTMIG Version: '3.3'
  Section: 2.2.5 Timing Variables for All Classes
  Variable: --ENRTPT
- Cited Guidance: The description or date and/or time of a time point that acts as
    a fixed reference for characterizing the end of an observation. This is the sponsor-defined
    reference point referred to by --ENRTPT.
  Class: ALL
  Condition: --ENTPT ^= null
  Document: Model v2.0
  Domain: ALL
  Item: --ENTPT
  Release Notes: Cited guidance updated. Reference to model section and item updated
    per new style.
  Rule: --ENRTPT ^= null
  Rule ID: CG0045
  Rule Version: '1'
  SDTMIG Version: '3.4'
  Section: Timing
  Variable: --ENRTPT
- Cited Guidance: (--ENRTPT) Identifies the end of the observation as being before
    or after the sponsor-defined reference time point defined by variable --ENTPT.
  Class: ALL
  Condition: --ENRTPT ^= null
  Document: Model v1.4
  Domain: ALL
  Item: Specification
  Release Notes: ''
  Rule: --ENTPT ^= null
  Rule ID: CG0046
  Rule Version: '1'
  SDTMIG Version: '3.2'
  Section: 2.2.5 Timing Variables for All Classes
  Variable: --ENTPT
- Cited Guidance: Identifies the end of the observation as being before or after the
    sponsor-defined reference time point defined by variable --ENTPT.
  Class: ALL
  Condition: --ENRTPT ^= null
  Document: Model v1.7
  Domain: ALL
  Item: 'Table 2.2.5.1: --ENTPT'
  Release Notes: ''
  Rule: --ENTPT ^= null
  Rule ID: CG0046
  Rule Version: '1'
  SDTMIG Version: '3.3'
  Section: 2.2.5 Timing Variables for All Classes
  Variable: --ENTPT
- Cited Guidance: The characterization of the end of an observation relative to a
    reference time point. The sponsor-defined reference time point is in --ENTPT.
  Class: ALL
  Condition: --ENRTPT ^= null
  Document: Model v2.0
  Domain: ALL
  Item: --ENRTPT
  Release Notes: Cited guidance updated. Reference to model section and item updated
    per new style.
  Rule: --ENTPT ^= null
  Rule ID: CG0046
  Rule Version: '1'
  SDTMIG Version: '3.4'
  Section: Timing
  Variable: --ENTPT
- Cited Guidance: If the value for --TERM is modified for coding purposes, then the
    modified text is placed here.
  Class: EVT
  Condition: --TERM modified for coding
  Document: Model v1.4
  Domain: ALL
  Item: Table 2.2.2
  Release Notes: ''
  Rule: --MODIFY ^= null
  Rule ID: CG0047
  Rule Version: '1'
  SDTMIG Version: '3.2'
  Section: 2.2.2
  Variable: --MODIFY
- Cited Guidance: If the value for --TERM is modified for coding purposes, then the
    modified text is placed here.
  Class: EVT
  Condition: --TERM modified for coding
  Document: Model v1.7
  Domain: ALL
  Item: Table 2.2.2.1
  Release Notes: ''
  Rule: --MODIFY ^= null
  Rule ID: CG0047
  Rule Version: '1'
  SDTMIG Version: '3.3'
  Section: 2.2.2
  Variable: --MODIFY
- Cited Guidance: A value which represents an alteration to a collected value for
    coding purposes. Synonym Qualifier of --TERM.
  Class: EVT
  Condition: --TERM modified for coding
  Document: Model v2.0
  Domain: ALL
  Item: --MODIFY
  Release Notes: Cited guidance updated. Reference to model section and item updated
    per new style.
  Rule: --MODIFY ^= null
  Rule ID: CG0047
  Rule Version: '1'
  SDTMIG Version: '3.4'
  Section: Events
  Variable: --MODIFY
- Cited Guidance: Model v1.4[2.2.2][--DECOD][Dictionary or sponsor-defined derived
    text description of the topic variable, --TERM, or the modified topic variable
    (--MODIFY), if applicable. Equivalent to the Preferred Term (PT in MedDRA).]|Model
    v1.4[2.2.2][--PTCD][MedDRA Preferred Term code.]
  Class: EVT
  Condition: ''
  Document: Model v1.4
  Domain: ALL
  Item: Model v1.4[2.2.2][--DECOD]|Model v1.4[2.2.2][--PTCD]
  Release Notes: Updated document reference.
  Rule: --DECOD and --PTCD have a one-to-one relationship
  Rule ID: CG0049
  Rule Version: '1'
  SDTMIG Version: '3.2'
  Section: Model v1.4[2.2.2]
  Variable: --PTCD
- Cited Guidance: Model v1.7[2.2.2][--DECOD][Dictionary or sponsor-defined derived
    text description of the topic variable, --TERM, or the modified topic variable
    (--MODIFY), if applicable. Equivalent to the Preferred Term (PT in MedDRA).]|Model
    v1.7[2.2.2][--PTCD][MedDRA Preferred Term code.]
  Class: EVT
  Condition: ''
  Document: Model v1.7
  Domain: ALL
  Item: Model v1.7[2.2.2][--DECOD]|Model v1.7[2.2.2][--PTCD]
  Release Notes: ''
  Rule: --DECOD and --PTCD have a one-to-one relationship
  Rule ID: CG0049
  Rule Version: '1'
  SDTMIG Version: '3.3'
  Section: Model v1.7[2.2.2]
  Variable: --PTCD
- Cited Guidance: --DECOD[Standardized or dictionary-derived text for the description
    of an event or intervention. Equivalent to the Preferred Term (PT in MedDRA).]|--PTCD[The
    preferred term code assigned to the event from MedDRA.]
  Class: EVT
  Condition: ''
  Document: Model v2.0
  Domain: ALL
  Item: --DECOD|--PTCD
  Release Notes: Cited guidance updated. Reference to model section and item updated
    per new style.
  Rule: --DECOD and --PTCD have a one-to-one relationship
  Rule ID: CG0049
  Rule Version: '1'
  SDTMIG Version: '3.4'
  Section: Events
  Variable: --PTCD
- Cited Guidance: MedDRA Preferred Term code.
  Class: EVT
  Condition: --PTCD ^= null
  Document: Model v1.4
  Domain: ALL
  Item: --PTCD
  Release Notes: Updated document reference.
  Rule: --DECOD ^= null
  Rule ID: CG0050
  Rule Version: '1'
  SDTMIG Version: '3.2'
  Section: 2.2.2
  Variable: --PTCD
- Cited Guidance: MedDRA Preferred Term code.
  Class: EVT
  Condition: --PTCD ^= null
  Document: Model v1.7
  Domain: ALL
  Item: --PTCD
  Release Notes: ''
  Rule: --DECOD ^= null
  Rule ID: CG0050
  Rule Version: '1'
  SDTMIG Version: '3.3'
  Section: 2.2.2
  Variable: --PTCD
- Cited Guidance: The preferred term code assigned to the event from MedDRA.
  Class: EVT
  Condition: --PTCD ^= null
  Document: Model v2.0
  Domain: ALL
  Item: --PTCD
  Release Notes: Cited guidance updated. Reference to model section and item updated
    per new style.
  Rule: --DECOD ^= null
  Rule ID: CG0050
  Rule Version: '1'
  SDTMIG Version: '3.4'
  Section: Events
  Variable: --PTCD
- Cited Guidance: (--PRESP/Events) Used to indicate whether the event describe by
    --TERM was pre-specified on a CRF. Value is Y for pre-specified events, null for
    spontaneously reported events. (--PRESP/Interventions) Used when a specific intervention
    is pre-specified on a CRF. Values should be "Y" or null. (--REASND) Used in conjunction
    with --STAT when value is NOT DONE
  Class: EVT, INT
  Condition: --PRESP not present in dataset
  Document: Model v1.4
  Domain: NOT(DS, DV, EX)
  Item: ''
  Release Notes: Updated spacing in Class, no other material change.
  Rule: --REASND not present in dataset
  Rule ID: CG0053
  Rule Version: '1'
  SDTMIG Version: '3.2'
  Section: 2.2.1 (Interventions )|2.2.2 (Events)
  Variable: --REASND
- Cited Guidance: (--PRESP/Events) Used to indicate whether the event describe by
    --TERM was pre-specified on a CRF. Value is Y for pre-specified events, null for
    spontaneously reported events. (--PRESP/Interventions) Used when a specific intervention
    is pre-specified on a CRF. Values should be "Y" or null. (--REASND) Used in conjunction
    with --STAT when value is NOT DONE
  Class: EVT, INT
  Condition: --PRESP not present in dataset
  Document: Model v1.7
  Domain: NOT(DS, DV, EX)
  Item: ''
  Release Notes: Updated spacing in Class, no other material change.
  Rule: --REASND not present in dataset
  Rule ID: CG0053
  Rule Version: '1'
  SDTMIG Version: '3.3'
  Section: 2.2.1 (Interventions )|2.2.2 (Events)
  Variable: --REASND
- Cited Guidance: --PRESP[An indication that the event or intervention was prospectively
    stated or detailed on the CRF.]|--OCCUR[An indication as to whether a prespecified
    event or intervention has occurred.]
  Class: EVT, INT
  Condition: --PRESP not present in dataset
  Document: Model v2.0
  Domain: NOT(DS, DV, EX)
  Item: --PRESP|--STAT
  Release Notes: 'Cited guidance updated. Reference to model section and item updated
    per new style. '
  Rule: --REASND not present in dataset
  Rule ID: CG0053
  Rule Version: '1'
  SDTMIG Version: '3.4'
  Section: Events|Interventions
  Variable: --REASND
- Cited Guidance: Model v1.4[2.2.1 (Interventions )][ (--PRESP Used when a specific
    intervention is pre-specified on a CRF. Values should be "Y" or null.]|Model v1.4[2.2.2
    (Events)][--PRESP Used to indicate whether the event describe by --TERM was pre-specified
    on a CRF. Value is Y for pre-specified events, null for spontaneously reported
    events. --STAT Used to indicate when a question about the occurrence of a pre-specified
    event was not answered. Should be null or hav a value of NOT DONE]
  Class: EVT, INT
  Condition: --PRESP not present in dataset
  Document: Model v1.4
  Domain: NOT(DS, DV, EX)
  Item: ''
  Release Notes: ''
  Rule: --STAT not present in dataset
  Rule ID: CG0056
  Rule Version: '1'
  SDTMIG Version: '3.2'
  Section: Model v1.4[2.2.1 (Interventions )]|Model v1.4[2.2.2 (Events)]
  Variable: --STAT
- Cited Guidance: Model v1.7[2.2.1 (Interventions )][ (--PRESP Used when a specific
    intervention is pre-specified on a CRF. Values should be "Y" or null.]|Model v1.7[2.2.2
    (Events)][--PRESP Used to indicate whether the event describe by --TERM was pre-specified
    on a CRF. Value is Y for pre-specified events, null for spontaneously reported
    events. --STAT Used to indicate when a question about the occurrence of a pre-specified
    event was not answered. Should be null or hav a value of NOT DONE]
  Class: EVT, INT
  Condition: --PRESP not present in dataset
  Document: Model v1.7
  Domain: NOT(DS, DV, EX)
  Item: ''
  Release Notes: ''
  Rule: --STAT not present in dataset
  Rule ID: CG0056
  Rule Version: '1'
  SDTMIG Version: '3.3'
  Section: Model v1.7[2.2.1 (Interventions )]|Model v1.7[2.2.2 (Events)]
  Variable: --STAT
- Cited Guidance: Events[--PRESP][An indication that the event was prospectively stated
    or detailed on the CRF.]|Events[--STAT][Used to indicate when a question about
    the occurrence of a prespecified event was not answered.]|Interventions[--PRESP][An
    indication that the intervention was prospectively stated or detailed on the CRF.]|Interventions[--STAT][Used
    to indicate when a question about the occurrence of a prespecified intervention
    was not answered.]
  Class: EVT, INT
  Condition: --PRESP not present in dataset
  Document: Model v2.0
  Domain: NOT(DS, DV, EX)
  Item: --PRESP|--STAT
  Release Notes: 'Cited guidance updated. Reference to model section and item updated
    per new style. '
  Rule: --STAT not present in dataset
  Rule ID: CG0056
  Rule Version: '1'
  SDTMIG Version: '3.4'
  Section: Events|Interventions
  Variable: --STAT
- Cited Guidance: (--ENRTPT) Identifies the end of the observation as being before
    or after the sponsor-defined reference time point defined by variable --ENTPT.
  Class: ALL
  Condition: --ENTPT present in dataset
  Document: Model v1.4
  Domain: ALL
  Item: Specification
  Release Notes: ''
  Rule: --ENRTPT present in dataset
  Rule ID: CG0057
  Rule Version: '1'
  SDTMIG Version: '3.2'
  Section: 2.2.5 Timing Variables for All Classes
  Variable: --ENRTPT
- Cited Guidance: Identifies the end of the observation as being before or after the
    sponsor-defined reference time point defined by variable --ENTPT.
  Class: ALL
  Condition: --ENTPT present in dataset
  Document: Model v1.7
  Domain: ALL
  Item: 'Table 2.2.5.1: --ENRTPT'
  Release Notes: ''
  Rule: --ENRTPT present in dataset
  Rule ID: CG0057
  Rule Version: '1'
  SDTMIG Version: '3.3'
  Section: 2.2.5 Timing Variables for All Classes
  Variable: --ENRTPT
- Cited Guidance: The characterization of the end of an observation relative to a
    reference time point. The sponsor-defined reference time point is in --ENTPT.
  Class: ALL
  Condition: --ENTPT present in dataset
  Document: Model v2.0
  Domain: ALL
  Item: --ENRTPT
  Release Notes: 'Cited guidance updated. Reference to model section and item updated
    per new style. '
  Rule: --ENRTPT present in dataset
  Rule ID: CG0057
  Rule Version: '1'
  SDTMIG Version: '3.4'
  Section: Timing
  Variable: --ENRTPT
- Cited Guidance: '(--ENTPT) Description or date/time in ISO 8601 or other character
    format of the sponsor-defined reference point referred to by --ENRTPT. Examples:
    "2003-12-25" or "VISIT 2".'
  Class: ALL
  Condition: --ENRTPT present in dataset
  Document: Model v1.4
  Domain: ALL
  Item: Specification
  Release Notes: ''
  Rule: --ENTPT present in dataset
  Rule ID: CG0058
  Rule Version: '1'
  SDTMIG Version: '3.2'
  Section: 2.2.5 Timing Variables for All Classes
  Variable: --ENTPT
- Cited Guidance: 'Description or date/time in ISO 8601 or other character format
    of the sponsor-defined reference point referred to by --ENRTPT. Examples: "2003-12-25"
    or "VISIT 2".'
  Class: ALL
  Condition: --ENRTPT present in dataset
  Document: Model v1.7
  Domain: ALL
  Item: 'Table 2.2.5.1: --ENTPT'
  Release Notes: ''
  Rule: --ENTPT present in dataset
  Rule ID: CG0058
  Rule Version: '1'
  SDTMIG Version: '3.3'
  Section: 2.2.5 Timing Variables for All Classes
  Variable: --ENTPT
- Cited Guidance: The description or date and/or time of a time point that acts as
    a fixed reference for characterizing the end of an observation. This is the sponsor-defined
    reference point referred to by --ENRTPT.
  Class: ALL
  Condition: --ENRTPT present in dataset
  Document: Model v2.0
  Domain: ALL
  Item: --ENTPT
  Release Notes: Cited guidance updated. Reference to model section and item updated
    per new style.
  Rule: --ENTPT present in dataset
  Rule ID: CG0058
  Rule Version: '1'
  SDTMIG Version: '3.4'
  Section: Timing
  Variable: --ENTPT
- Cited Guidance: (--STRTPT) Identifies the start of the observation as being before
    or after the sponsor-defined reference time point defined by variable --STTPT.
  Class: ALL
  Condition: --STTPT ^= null
  Document: Model v1.4
  Domain: ALL
  Item: Specification
  Release Notes: ''
  Rule: --STRTPT ^= null
  Rule ID: CG0059
  Rule Version: '1'
  SDTMIG Version: '3.2'
  Section: 2.2.5 Timing Variables for All Classes
  Variable: --STRTPT
- Cited Guidance: Identifies the start of the observation as being before or after
    the sponsor-defined reference time point defined by variable --STTPT.
  Class: ALL
  Condition: --STTPT ^= null
  Document: Model v1.7
  Domain: ALL
  Item: 'Table 2.2.5.1: --STRTPT'
  Release Notes: ''
  Rule: --STRTPT ^= null
  Rule ID: CG0059
  Rule Version: '1'
  SDTMIG Version: '3.3'
  Section: 2.2.5 Timing Variables for All Classes
  Variable: --STRTPT
- Cited Guidance: The characterization of the start of an observation relative to
    a reference time point. The sponsor-defined reference time point is in --STTPT.
  Class: ALL
  Condition: --STTPT ^= null
  Document: Model v2.0
  Domain: ALL
  Item: --STRTPT
  Release Notes: 'Cited guidance updated. Reference to model section and item updated
    per new style. '
  Rule: --STRTPT ^= null
  Rule ID: CG0059
  Rule Version: '1'
  SDTMIG Version: '3.4'
  Section: Timing
  Variable: --STRTPT
- Cited Guidance: (--STRTPT) Identifies the start of the observation as being before
    or after the sponsor-defined reference time point defined by variable --STTPT.
  Class: ALL
  Condition: --STTPT present in dataset
  Document: Model v1.4
  Domain: ALL
  Item: Specification
  Release Notes: ''
  Rule: --STRTPT present in dataset
  Rule ID: CG0060
  Rule Version: '1'
  SDTMIG Version: '3.2'
  Section: 2.2.5 Timing Variables for All Classes
  Variable: --STRTPT
- Cited Guidance: Identifies the start of the observation as being before or after
    the sponsor-defined reference time point defined by variable --STTPT.
  Class: ALL
  Condition: --STTPT present in dataset
  Document: Model v1.7
  Domain: ALL
  Item: 'Table 2.2.5.1: --STRTPT'
  Release Notes: ''
  Rule: --STRTPT present in dataset
  Rule ID: CG0060
  Rule Version: '1'
  SDTMIG Version: '3.3'
  Section: 2.2.5 Timing Variables for All Classes
  Variable: --STRTPT
- Cited Guidance: The characterization of the start of an observation relative to
    a reference time point. The sponsor-defined reference time point is in --STTPT.
  Class: ALL
  Condition: --STTPT present in dataset
  Document: Model v2.0
  Domain: ALL
  Item: --STRTPT
  Release Notes: 'Cited guidance updated. Reference to model section and item updated
    per new style. '
  Rule: --STRTPT present in dataset
  Rule ID: CG0060
  Rule Version: '1'
  SDTMIG Version: '3.4'
  Section: Timing
  Variable: --STRTPT
- Cited Guidance: '(--STTPT) Description or date/time in ISO 8601 or other character
    format of the sponsor-defined reference point referred to by --STRTPT. Examples:
    "2003-12-15" or "VISIT 1".'
  Class: ALL
  Condition: --STRTPT ^= null
  Document: Model v1.4
  Domain: ALL
  Item: Specification
  Release Notes: ''
  Rule: --STTPT ^= null
  Rule ID: CG0061
  Rule Version: '1'
  SDTMIG Version: '3.2'
  Section: 2.2.5 Timing Variables for All Classes
  Variable: --STTPT
- Cited Guidance: 'Description or date/time in ISO 8601 or other character format
    of the sponsor-defined reference point referred to by --STRTPT. Examples: "2003-12-15"
    or "VISIT 1".'
  Class: ALL
  Condition: --STRTPT ^= null
  Document: Model v1.7
  Domain: ALL
  Item: 'Table 2.2.5.1: --STTPT'
  Release Notes: ''
  Rule: --STTPT ^= null
  Rule ID: CG0061
  Rule Version: '1'
  SDTMIG Version: '3.3'
  Section: 2.2.5 Timing Variables for All Classes
  Variable: --STTPT
- Cited Guidance: The description or date and/or time of a time point that acts as
    a fixed reference for characterizing the start of an observation. This is the
    sponsor-defined reference point referred to by --STRTPT.
  Class: ALL
  Condition: --STRTPT ^= null
  Document: Model v2.0
  Domain: ALL
  Item: --STTPT
  Release Notes: 'Cited guidance updated. Reference to model section and item updated
    per new style. '
  Rule: --STTPT ^= null
  Rule ID: CG0061
  Rule Version: '1'
  SDTMIG Version: '3.4'
  Section: Timing
  Variable: --STTPT
- Cited Guidance: '(--STTPT) Description or date/time in ISO 8601 or other character
    format of the sponsor-defined reference point referred to by --STRTPT. Examples:
    "2003-12-15" or "VISIT 1".'
  Class: ALL
  Condition: --STRTPT present in dataset
  Document: Model v1.4
  Domain: ALL
  Item: Specification
  Release Notes: ''
  Rule: --STTPT present in dataset
  Rule ID: CG0062
  Rule Version: '1'
  SDTMIG Version: '3.2'
  Section: 2.2.5 Timing Variables for All Classes
  Variable: --STTPT
- Cited Guidance: 'Description or date/time in ISO 8601 or other character format
    of the sponsor-defined reference point referred to by --STRTPT. Examples: "2003-12-15"
    or "VISIT 1".'
  Class: ALL
  Condition: --STRTPT present in dataset
  Document: Model v1.7
  Domain: ALL
  Item: 'Table 2.2.5.1: --STTPT'
  Release Notes: ''
  Rule: --STTPT present in dataset
  Rule ID: CG0062
  Rule Version: '1'
  SDTMIG Version: '3.3'
  Section: 2.2.5 Timing Variables for All Classes
  Variable: --STTPT
- Cited Guidance: The description or date and/or time of a time point that acts as
    a fixed reference for characterizing the start of an observation. This is the
    sponsor-defined reference point referred to by --STRTPT.
  Class: ALL
  Condition: --STRTPT present in dataset
  Document: Model v2.0
  Domain: ALL
  Item: --STTPT
  Release Notes: 'Cited guidance updated. Reference to model section and item updated
    per new style. '
  Rule: --STTPT present in dataset
  Rule ID: CG0062
  Rule Version: '1'
  SDTMIG Version: '3.4'
  Section: Timing
  Variable: --STTPT
- Cited Guidance: 'A sponsor may collect one disposition event for the trial as a
    whole, or they may collect disposition for each Epoch of the trial. When disposition
    is collected for each Epoch, the variable EPOCH should be included in the DS dataset.
    When EPOCH is populated for disposition events (records with DSCAT = DISPOSITION
    EVENT), EPOCH is the name of the Epoch for the disposition event described in
    the record. This is a subtly different meaning from that of EPOCH when it is used
    in other general-observation-class domains, where EPOCH, as a Timing variable,
    is the name of the Epoch during which --STDTC or --DTC falls. The values of EPOCH
    are drawn from the Trial Arms domain, Section 7.2 - Experimental Design: Trial
    Arms (TA)'
  Class: EVT
  Condition: Multiple events per subject where DSCAT = 'DISPOSITION EVENT'
  Document: IG v3.2
  Domain: DS
  Item: 'DS Assumption 3.C:'
  Release Notes: ''
  Rule: EPOCH ^= null
  Rule ID: CG0063
  Rule Version: '1'
  SDTMIG Version: '3.2'
  Section: '6.2'
  Variable: EPOCH
- Cited Guidance: b. When DSTERM = 'COMPLETED', DSDECOD = 'COMPLETED'.
  Class: EVT
  Condition: DSTERM = 'COMPLETED'
  Document: IG v3.2
  Domain: DS
  Item: Assumption 3b
  Release Notes: ''
  Rule: DSDECOD = 'COMPLETED'
  Rule ID: CG0065
  Rule Version: '1'
  SDTMIG Version: '3.2'
  Section: '6.2'
  Variable: DSDECOD
- Cited Guidance: b. When DSTERM = 'COMPLETED', DSDECOD = 'COMPLETED'.
  Class: EVT
  Condition: DSTERM = 'COMPLETED'
  Document: IG v3.3
  Domain: DS
  Item: Assumption 3b
  Release Notes: ''
  Rule: DSDECOD = 'COMPLETED'
  Rule ID: CG0065
  Rule Version: '1'
  SDTMIG Version: '3.3'
  Section: 6.2.3
  Variable: DSDECOD
- Cited Guidance: When DSTERM = "COMPLETED", DSDECOD is the term "COMPLETED" from
    the controlled terminology codelist NCOMPLT.
  Class: EVT
  Condition: DSTERM = 'COMPLETED'
  Document: IG v3.4
  Domain: DS
  Item: Assumption 3.b.i.
  Release Notes: No change
  Rule: DSDECOD = 'COMPLETED'
  Rule ID: CG0065
  Rule Version: '1'
  SDTMIG Version: '3.4'
  Section: 6.2.3
  Variable: DSDECOD
- Cited Guidance: d. When DSCAT='PROTOCOL MILESTONE', DSTERM and DSDECOD will contain
    the same value drawn from the sponsor's controlled terminology.
  Class: EVT
  Condition: DSCAT = 'PROTOCOL MILESTONE'
  Document: IG v3.2
  Domain: DS
  Item: Assumption 3d
  Release Notes: 'Deprecated for v3.3: 6.2 Assumption 3d When DSCAT="PROTOCOL MILESTONE",
    DSTERM contains the verbatim (as collected) and/or standardized text, DSDECOD
    will contain the standard term from a controlled terminology list. For example,
    if the verbatim of DSTERM is "INFORMED CONSENT FOR BIOMARKER SUB-STUDY OBTAINED",
    then its corresponding DSDECOD would be standardized to "INFORMED CONSENT OBTAINED".
    If deemed necessary, DSSCAT can also be used as a further logical grouping using
    sponsor controlled terminology.'
  Rule: DSTERM = DSDECOD
  Rule ID: CG0066
  Rule Version: '1'
  SDTMIG Version: '3.2'
  Section: '6.2'
  Variable: DSDECOD
- Cited Guidance: For example, if a subject's Survival Status is "DEAD", the date
    of death must be stored in DM and within a final disposition record in DS.
  Class: EVT
  Condition: SS.SSSTRESC = 'DEAD'
  Document: IG v3.2
  Domain: DS
  Item: Assumption 2
  Release Notes: ''
  Rule: DSDECOD = 'DEATH'
  Rule ID: CG0067
  Rule Version: '1'
  SDTMIG Version: '3.2'
  Section: '6.3'
  Variable: DSDECOD
- Cited Guidance: For example, if a subject's Survival Status is "DEAD", the date
    of death must be stored in DM and within a final disposition record in DS.
  Class: EVT
  Condition: SS.SSSTRESC = 'DEAD'
  Document: IG v3.3
  Domain: DS
  Item: Assumption 1
  Release Notes: ''
  Rule: DSDECOD = 'DEATH'
  Rule ID: CG0067
  Rule Version: '1'
  SDTMIG Version: '3.3'
  Section: 6.3.15
  Variable: DSDECOD
- Cited Guidance: For example, if a subject's survival status is "DEAD", the date
    of death must be stored in DM and within a final disposition record in DS.
  Class: EVT
  Condition: SS.SSSTRESC = 'DEAD'
  Document: IG v3.4
  Domain: DS
  Item: Assumption 1
  Release Notes: Cited guidance section updated.
  Rule: DSDECOD = 'DEATH'
  Rule ID: CG0067
  Rule Version: '1'
  SDTMIG Version: '3.4'
  Section: 6.3.11
  Variable: DSDECOD
- Cited Guidance: Date/time of informed consent in ISO 8601 character format. This
    will be the same as the date of informed consent in the Disposition domain, if
    that protocol milestone is documented.
  Class: EVT
  Condition: Multiple informed consents obtained and DSDECOD = 'INFORMED CONSENT OBTAINED'
  Document: IG v3.2
  Domain: DS
  Item: Specification
  Release Notes: ''
  Rule: For each subject, earliest DSSTDTC = DM.RFICDTC
  Rule ID: CG0068
  Rule Version: '1'
  SDTMIG Version: '3.2'
  Section: '5'
  Variable: DSSTDTC
- Cited Guidance: Date/time of informed consent in ISO 8601 character format. This
    will be the same as the date of informed consent in the Disposition domain, if
    that protocol milestone is documented.
  Class: EVT
  Condition: Multiple informed consents obtained and DSDECOD = 'INFORMED CONSENT OBTAINED'
  Document: IG v3.3
  Domain: DS
  Item: Specification
  Release Notes: ''
  Rule: For each subject, earliest DSSTDTC = DM.RFICDTC
  Rule ID: CG0068
  Rule Version: '1'
  SDTMIG Version: '3.3'
  Section: '5.2'
  Variable: DSSTDTC
- Cited Guidance: Date/time of informed consent in ISO 8601 character format. This
    will be the same as the date of informed consent in the Disposition domain, if
    that protocol milestone is documented.
  Class: EVT
  Condition: Multiple informed consents obtained and DSDECOD = 'INFORMED CONSENT OBTAINED'
  Document: IG v3.4
  Domain: DS
  Item: Specification
  Release Notes: No Change
  Rule: For each subject, earliest DSSTDTC = DM.RFICDTC
  Rule ID: CG0068
  Rule Version: '1'
  SDTMIG Version: '3.4'
  Section: '5.2'
  Variable: DSSTDTC
- Cited Guidance: Date/time of death for any subject who died, in ISO 8601 format.
    Should represent the date/time that is captured in the clinical-trial database.
  Class: EVT
  Condition: DSDECOD = 'DEATH'
  Document: IG v3.2
  Domain: DS
  Item: Specification
  Release Notes: ''
  Rule: DSSTDTC = DM.DTHDTC
  Rule ID: CG0069
  Rule Version: '1'
  SDTMIG Version: '3.2'
  Section: '5'
  Variable: DSSTDTC
- Cited Guidance: Date/time of death for any subject who died, in ISO 8601 format.
    Should represent the date/time that is captured in the clinical-trial database.
  Class: EVT
  Condition: DSDECOD = 'DEATH'
  Document: IG v3.3
  Domain: DS
  Item: Specification
  Release Notes: ''
  Rule: DSSTDTC = DM.DTHDTC
  Rule ID: CG0069
  Rule Version: '1'
  SDTMIG Version: '3.3'
  Section: '5.2'
  Variable: DSSTDTC
- Cited Guidance: Date/time of death for any subject who died, in ISO 8601 format.
    Should represent the date/time that is captured in the clinical-trial database.
  Class: EVT
  Condition: DSDECOD = 'DEATH'
  Document: IG v3.4
  Domain: DS
  Item: Specification
  Release Notes: No Change
  Rule: DSSTDTC = DM.DTHDTC
  Rule ID: CG0069
  Rule Version: '1'
  SDTMIG Version: '3.4'
  Section: '5.2'
  Variable: DSSTDTC
- Cited Guidance: When DSCAT='DISPOSITION EVENT", DSTERM contains either "COMPLETED"
    or, if the subject did not complete, specific verbatim information about the disposition
    event
  Class: EVT
  Condition: DSCAT = 'DISPOSITION EVENT'
  Document: IG v3.2
  Domain: DS
  Item: Assumption 3a
  Release Notes: Corrected source text reference.
  Rule: DSTERM = 'COMPLETED' or the reason for discontinuation
  Rule ID: CG0071
  Rule Version: '1'
  SDTMIG Version: '3.2'
  Section: '6.2'
  Variable: DSTERM
- Cited Guidance: When DSCAT = "DISPOSITION EVENT" DSTERM contains either "COMPLETED"
    or, if the subject did not complete, specific verbatim information about the reason
    for non-completion
  Class: EVT
  Condition: DSCAT = 'DISPOSITION EVENT'
  Document: IG v3.3
  Domain: DS
  Item: Assumption 3b
  Release Notes: Corrected source text reference.
  Rule: DSTERM = 'COMPLETED' or the reason for discontinuation
  Rule ID: CG0071
  Rule Version: '1'
  SDTMIG Version: '3.3'
  Section: 6.2.3
  Variable: DSTERM
- Cited Guidance: When DSCAT = "DISPOSITION EVENT" DSTERM contains either "COMPLETED"
    or, if the subject did not complete, specific verbatim information about the reason
    for non-completion
  Class: EVT
  Condition: DSCAT = 'DISPOSITION EVENT'
  Document: IG v3.4
  Domain: DS
  Item: Assumption 3b
  Release Notes: Cited guidance section updated.
  Rule: DSTERM = 'COMPLETED' or the reason for discontinuation
  Rule ID: CG0071
  Rule Version: '1'
  SDTMIG Version: '3.4'
  Section: 6.2.4
  Variable: DSTERM
- Cited Guidance: When DSCAT='PROTOCOL MILESTONE', DSTERM and DSDECOD will contain
    the same value drawn from the sponsor's controlled terminology. Examples of controlled
    terms include 'INFORMED CONSENT OBTAINED' and 'RANDOMIZED.' EPOCH should not be
    populated when DSCAT = "PROTOCOL MILESTONE".
  Class: EVT
  Condition: DSCAT = 'PROTOCOL MILESTONE'
  Document: IG v3.2
  Domain: DS
  Item: Assumption 3d
  Release Notes: Updated Condition from "DSCAT ^= 'DISPOSTION EVENT'".  It was noted
    that there is no specific prohibition disallowing Other Events from using EPOCH.
  Rule: EPOCH = null
  Rule ID: CG0073
  Rule Version: '2'
  SDTMIG Version: '3.2'
  Section: '6.2'
  Variable: EPOCH
- Cited Guidance: The intent of the domain is to capture protocol violations and deviations
    during the course of the study and will store only those criteria violation by
    or deviated from by the subject and not a response to each violation or deviation.
  Class: EVT
  Condition: ''
  Document: IG v3.2
  Domain: DV
  Item: ''
  Release Notes: ''
  Rule: DVSTDTC >= DM.RFICDTC
  Rule ID: CG0075
  Rule Version: '1'
  SDTMIG Version: '3.2'
  Section: '6.2'
  Variable: DVSTDTC
- Cited Guidance: 'The intent of the domain model is to capture protocol deviations
    that occurred during the course of the study (see ICH E3: Section 10.2 at http://www.ich.org/fileadmin/Public_Web_Site/ICH_Products/Guidelines/Efficacy/E3/E3_Guideline.pdf).
    Usually these are deviations that occur after the subject has been randomized
    or received the first treatment.'
  Class: EVT
  Condition: ''
  Document: IG v3.3
  Domain: DV
  Item: Assumption 1
  Release Notes: Cited guidance item added.
  Rule: DVSTDTC >= DM.RFICDTC
  Rule ID: CG0075
  Rule Version: '1'
  SDTMIG Version: '3.3'
  Section: 6.2.4
  Variable: DVSTDTC
- Cited Guidance: 'The intent of the domain model is to capture protocol deviations
    that occurred during the course of the study (see ICH E3: Section 10.2 at http://www.ich.org/fileadmin/Public_Web_Site/ICH_Products/Guidelines/Efficacy/E3/E3_Guideline.pdf).
    Usually these are deviations that occur after the subject has been randomized
    or received the first treatment.'
  Class: EVT
  Condition: ''
  Document: IG v3.4
  Domain: DV
  Item: Assumption 1
  Release Notes: Cited guidance section updated.
  Rule: DVSTDTC >= DM.RFICDTC
  Rule ID: CG0075
  Rule Version: '1'
  SDTMIG Version: '3.4'
  Section: 6.2.7
  Variable: DVSTDTC
- Cited Guidance: The DV domain is an Events model for collected protocol deviations
    and not for derived protocol deviations that are more likely to be part of analysis
  Class: EVT
  Condition: ''
  Document: IG v3.2
  Domain: DV
  Item: Assumption 1
  Release Notes: ''
  Rule: Event is not derived
  Rule ID: CG0076
  Rule Version: '1'
  SDTMIG Version: '3.2'
  Section: '6.2'
  Variable: GEN
- Cited Guidance: The DV domain is an Events model for collected protocol deviations
    and not for derived protocol deviations that are more likely to be part of analysis.
  Class: EVT
  Condition: ''
  Document: IG v3.3
  Domain: DV
  Item: Assumption 1
  Release Notes: ''
  Rule: Event is not derived
  Rule ID: CG0076
  Rule Version: '1'
  SDTMIG Version: '3.3'
  Section: 6.2.4
  Variable: GEN
- Cited Guidance: The DV domain is an Events model for collected protocol deviations
    and not for derived protocol deviations that are more likely to be part of analysis.
  Class: EVT
  Condition: ''
  Document: IG v3.4
  Domain: DV
  Item: Assumption 1
  Release Notes: Cited guidance section updated.
  Rule: Event is not derived
  Rule ID: CG0076
  Rule Version: '1'
  SDTMIG Version: '3.4'
  Section: 6.2.7
  Variable: GEN
- Cited Guidance: This categorization should not group all records (within the MH
    Domain) into one generic group such as "Medical History" or "General Medical History"
    because this is redundant information with the domain code. If no smaller categorization
    can be applied, then it is not necessary to include or populate this variable.
  Class: EVT
  Condition: MHCAT ^= null
  Document: IG v3.2
  Domain: MH
  Item: Assumptions 3.a.i
  Release Notes: ''
  Rule: MHCAT ^= the same value for all records
  Rule ID: CG0077
  Rule Version: '1'
  SDTMIG Version: '3.2'
  Section: '6.2'
  Variable: MHCAT
- Cited Guidance: This categorization should not group all records (within the MH
    Domain) into one generic group such as "Medical History" or "General Medical History"
    because this is redundant information with the domain code. If no smaller categorization
    can be applied, then it is not necessary to include or populate this variable.
  Class: EVT
  Condition: MHCAT ^= null
  Document: IG v3.3
  Domain: MH
  Item: Assumptions 3.a.1
  Release Notes: ''
  Rule: MHCAT ^= the same value for all records
  Rule ID: CG0077
  Rule Version: '1'
  SDTMIG Version: '3.3'
  Section: 6.2.6
  Variable: MHCAT
- Cited Guidance: This categorization should not group all records (within the MH
    Domain) into one generic group such as "Medical History" or "General Medical History"
    because this is redundant information with the domain code. If no smaller categorization
    can be applied, then it is not necessary to include or populate this variable.
  Class: EVT
  Condition: MHCAT ^= null
  Document: IG v3.4
  Domain: MH
  Item: Assumptions 3.a.1
  Release Notes: No change
  Rule: MHCAT ^= the same value for all records
  Rule ID: CG0077
  Rule Version: '1'
  SDTMIG Version: '3.4'
  Section: 6.2.6
  Variable: MHCAT
- Cited Guidance: 'IG v3.2[2.6][Section 2.6: Do not create separate domains based
    on time, rather represent both prior and current observations in a domain (e.g.,
    CM for all non-study medications). Note that AE and MH are an exception to this
    best practice because of regulatory reporting needs.]|IG v3.2[4.1.2.6][Section
    4.1.2.6, Item 2.B.3.A (Discussion of --CAT/--SCAT): Adverse Events (AE), Medical
    History (MH) and Clinical Events (CE), for example, are conceptually the same
    data, the only differences being when the event started relative to the study
    start and whether the event is considered a regulatory reportable adverse event
    in the study.]|IG v3.2[6.2][Domain Code Table: The medical history dataset includes
    the subject''s prior history at the start of the trial.][MH: The medical history
    dataset includes the subject''s prior history at the start of the trial.][Assumption
    1:The Medical History dataset generally includes the subject''s prior and concomitant
    conditions at the start of the trial.]'
  Class: EVT
  Condition: MHENDTC ^= null
  Document: IG v3.2
  Domain: MH
  Item: ''
  Release Notes: ''
  Rule: MHENDTC < DM.RFSTDTC
  Rule ID: CG0078
  Rule Version: '1'
  SDTMIG Version: '3.2'
  Section: IG v3.2[2.6]|IG v3.2[4.1.2.6]|IG v3.2[6.2]
  Variable: MHENDTC
- Cited Guidance: 'IG v3.3[2.6][Do not create separate domains based on time; rather,
    represent both prior and current observations in a domain (e.g., CM for all non-study
    medications). Note that AE and MH are an exception to this best practice because
    of regulatory reporting needs]|IG v3.3[4.2.6][Item 2.B.3.A (Discussion of --CAT/--SCAT):  Adverse
    Events (AE), Medical History (MH), and Clinical Events (CE), for example, are
    conceptually the same data, the only differences being when the event started
    relative to the study start and whether the event is considered a regulatory reportable
    adverse event in the study.]|IG v3.3[6.2][Domain Code Table: The medical history
    dataset includes the subject''s prior history at the start of the trial.][MH:
    The medical history dataset includes the subject''s prior history at the start
    of the trial.]'
  Class: EVT
  Condition: MHENDTC ^= null
  Document: IG v3.3
  Domain: MH
  Item: ''
  Release Notes: Cited guidance updated.
  Rule: MHENDTC < DM.RFSTDTC
  Rule ID: CG0078
  Rule Version: '1'
  SDTMIG Version: '3.3'
  Section: IG v3.3[2.6]|IG v3.3[4.2.6]|IG v3.3[6.2]
  Variable: MHENDTC
- Cited Guidance: 'IG v3.4[2.6][Do not create separate domains based on time; rather,
    represent both prior and current observations in a domain (e.g., CM for all non-study
    medications). Note that AE and MH are an exception to this best practice because
    of regulatory reporting needs]|IG v3.4[4.2.6][Item 2.B.3.a (Discussion of --CAT/--SCAT):  Adverse
    Events (AE), Medical History (MH), and Clinical Events (CE), for example, are
    conceptually the same data, the only differences being when the event started
    relative to the study start and whether the event is considered a regulatory reportable
    adverse event in the study.]|IG v3.4[6.2.6][MH Description: The medical history
    dataset includes the subject''s prior history at the start of the trial.]'
  Class: EVT
  Condition: MHENDTC ^= null
  Document: IG v3.4
  Domain: MH
  Item: '|[4.2.6]Assumption 2.B.3.a.|'
  Release Notes: Cited guidance updated.
  Rule: MHENDTC < DM.RFSTDTC
  Rule ID: CG0078
  Rule Version: '1'
  SDTMIG Version: '3.4'
  Section: IG v3.4[2.6]|IG v3.4[4.2.6]|IG v3.4[6.2]
  Variable: MHENDTC
- Cited Guidance: 'IG v3.2[2.6][Section 2.6: Do not create separate domains based
    on time, rather represent both prior and current observations in a domain (e.g.,
    CM for all non-study medications). Note that AE and MH are an exception to this
    best practice because of regulatory reporting needs.]|IG v3.2[4.1.2.6][Section
    4.1.2.6, Item 2.B.3.A (Discussion of --CAT/--SCAT): Adverse Events (AE), Medical
    History (MH) and Clinical Events (CE), for example, are conceptually the same
    data, the only differences being when the event started relative to the study
    start and whether the event is considered a regulatory reportable adverse event
    in the study.]|IG v3.2[6.2][Domain Code Table: The medical history dataset includes
    the subject''s prior history at the start of the trial.][MH: The medical history
    dataset includes the subject''s prior history at the start of the trial.][Assumption
    1:The Medical History dataset generally includes the subject''s prior and concomitant
    conditions at the start of the trial.]'
  Class: EVT
  Condition: MHSTDTC ^= null
  Document: IG v3.2
  Domain: MH
  Item: ''
  Release Notes: ''
  Rule: MHSTDTC < DM.RFSTDTC
  Rule ID: CG0079
  Rule Version: '1'
  SDTMIG Version: '3.2'
  Section: IG v3.2[2.6]|IG v3.2[4.1.2.6]|IG v3.2[6.2]
  Variable: MHSTDTC
- Cited Guidance: 'IG v3.3[2.6][Do not create separate domains based on time; rather,
    represent both prior and current observations in a domain (e.g., CM for all non-study
    medications). Note that AE and MH are an exception to this best practice because
    of regulatory reporting needs]|IG v3.3[4.2.6][Item 2.B.3.A (Discussion of --CAT/--SCAT):  Adverse
    Events (AE), Medical History (MH), and Clinical Events (CE), for example, are
    conceptually the same data, the only differences being when the event started
    relative to the study start and whether the event is considered a regulatory reportable
    adverse event in the study.]|IG v3.3[6.2][Domain Code Table: The medical history
    dataset includes the subject''s prior history at the start of the trial.][MH:
    The medical history dataset includes the subject''s prior history at the start
    of the trial.]'
  Class: EVT
  Condition: MHSTDTC ^= null
  Document: IG v3.3
  Domain: MH
  Item: ''
  Release Notes: Cited guidance updated.
  Rule: MHSTDTC < DM.RFSTDTC
  Rule ID: CG0079
  Rule Version: '1'
  SDTMIG Version: '3.3'
  Section: IG v3.3[2.6]|IG v3.3[4.2.6]|IG v3.3[6.2]
  Variable: MHSTDTC
- Cited Guidance: 'IG v3.3[2.6][Do not create separate domains based on time; rather,
    represent both prior and current observations in a domain (e.g., CM for all non-study
    medications). Note that AE and MH are an exception to this best practice because
    of regulatory reporting needs]|IG v3.3[4.2.6][Item 2.B.3.A (Discussion of --CAT/--SCAT):  Adverse
    Events (AE), Medical History (MH), and Clinical Events (CE), for example, are
    conceptually the same data, the only differences being when the event started
    relative to the study start and whether the event is considered a regulatory reportable
    adverse event in the study.]|IG v3.3[6.2][Domain Code Table: The medical history
    dataset includes the subject''s prior history at the start of the trial.][MH:
    The medical history dataset includes the subject''s prior history at the start
    of the trial.]'
  Class: EVT
  Condition: MHSTDTC ^= null
  Document: IG v3.4
  Domain: MH
  Item: ''
  Release Notes: Cited guidance updated.
  Rule: MHSTDTC < DM.RFSTDTC
  Rule ID: CG0079
  Rule Version: '1'
  SDTMIG Version: '3.4'
  Section: IG v3.3[2.6]|IG v3.3[4.2.6]|IG v3.3[6.2]
  Variable: MHSTDTC
- Cited Guidance: 'Model v1.4[2.2.1 (Interventions )][--PRESP: Used when a specific
    intervention is pre-specified on a CRF. Values should be "Y" or null.][--OCCUR:
    Used to record whether a pre-specified event occurred when information about the
    occurrence of a specific event is solicited.][--STAT: Used to indicate when a
    question about the occurrence of a pre-specified event was not answered. Should
    be null or hav a value of NOT DONE][--REASND: Used in conjunction with --STAT
    when value is NOT DONE]|Model v1.4[2.2.2 (Events)][--PRESP: Used to indicate whether
    the event describe by --TERM was pre-specified on a CRF. Value is Y for pre-specified
    events, null for spontaneously reported events.][--OCCUR: Used to record whether
    a pre-specified event occurred when information about the occurrence of a specific
    event is solicited.][--STAT: Used to indicate when a question about the occurrence
    of a pre-specified event was not answered . Should be null or hav a value of NOT
    DONE][--REASND: Used in conjunction with --STAT when value is NOT DONE]'
  Class: EVT, INT
  Condition: --PRESP = 'Y' and --OCCUR = null
  Document: Model v1.4
  Domain: NOT(DS, DV, EX)
  Item: ''
  Release Notes: ''
  Rule: --STAT = 'NOT DONE'
  Rule ID: CG0081
  Rule Version: '1'
  SDTMIG Version: '3.2'
  Section: Model v1.4[2.2.1 (Interventions )]|Model v1.4[2.2.2 (Events)]
  Variable: --STAT
- Cited Guidance: 'Model v1.7[2.2.1 (Interventions )][--PRESP: Used when a specific
    intervention is pre-specified on a CRF. Values should be "Y" or null.][--OCCUR:
    Used to record whether a pre-specified event occurred when information about the
    occurrence of a specific event is solicited.][--STAT: Used to indicate when a
    question about the occurrence of a pre-specified event was not answered. Should
    be null or hav a value of NOT DONE][--REASND: Used in conjunction with --STAT
    when value is NOT DONE]|Model v1.7[2.2.2 (Events)][--PRESP: Used to indicate whether
    the event describe by --TERM was pre-specified on a CRF. Value is Y for pre-specified
    events, null for spontaneously reported events.][--OCCUR: Used to record whether
    a pre-specified event occurred when information about the occurrence of a specific
    event is solicited.][--STAT: Used to indicate when a question about the occurrence
    of a pre-specified event was not answered . Should be null or hav a value of NOT
    DONE][--REASND: Used in conjunction with --STAT when value is NOT DONE]'
  Class: EVT, INT
  Condition: --PRESP = 'Y' and --OCCUR = null
  Document: Model v1.7
  Domain: NOT(DS, DV, EX)
  Item: ''
  Release Notes: ''
  Rule: --STAT = 'NOT DONE'
  Rule ID: CG0081
  Rule Version: '1'
  SDTMIG Version: '3.3'
  Section: Model v1.7[2.2.1 (Interventions )]|Model v1.7[2.2.2 (Events)]
  Variable: --STAT
- Cited Guidance: Events[--PRESP][An indication that the event was prospectively stated
    or detailed on the CRF.]|Events|[--OCCUR][An indication as to whether a prespecified
    event has occurred.]|Events[--STAT][Used to indicate when a question about the
    occurrence of a prespecified event was not answered.]|Interventions[--PRESP][An
    indication that the intervention was prospectively stated or detailed on the CRF.]|Interventions[--OCCUR][An
    indication as to whether a prespecified intervention has occurred.]|Interventions[--STAT][Used
    to indicate when a question about the occurrence of a prespecified intervention
    was not answered. Should be null or have a value of "NOT DONE".]
  Class: EVT, INT
  Condition: --PRESP = 'Y' and --OCCUR = null
  Document: Model v2.0
  Domain: NOT(DS, DV, EX)
  Item: --PRESP|--OCCUR|STAT
  Release Notes: Cited guidance updated. Reference to model section and item updated
    per new style.
  Rule: --STAT = 'NOT DONE'
  Rule ID: CG0081
  Rule Version: '1'
  SDTMIG Version: '3.4'
  Section: Events|Interventions
  Variable: --STAT
- Cited Guidance: Variable Qualifier of --BODSYS
  Class: EVT
  Condition: --BODSYS ^= null
  Document: Model v1.4
  Domain: ALL
  Item: ''
  Release Notes: Findings removed since BDSYCD not in Findings.
  Rule: --BDSYCD ^= null
  Rule ID: CG0082
  Rule Version: '2'
  SDTMIG Version: '3.2'
  Section: 2.2.2
  Variable: --BDSYCD
- Cited Guidance: Variable Qualifier of --BODSYS
  Class: EVT
  Condition: --BODSYS ^= null
  Document: Model v1.7
  Domain: ALL
  Item: ''
  Release Notes: Findings removed since BDSYCD not in Findings.
  Rule: --BDSYCD ^= null
  Rule ID: CG0082
  Rule Version: '2'
  SDTMIG Version: '3.3'
  Section: 2.2.2
  Variable: --BDSYCD
- Cited Guidance: Events[--BODSYSCD][Variable Qualifier of BODSYS]
  Class: EVT
  Condition: --BODSYS ^= null
  Document: Model v2.0
  Domain: ALL
  Item: --BODSYS
  Release Notes: 'Cited guidance updated. Reference to model section and item updated
    per new style. Findings removed since BDSYCD not in Findings. '
  Rule: --BDSYCD ^= null
  Rule ID: CG0082
  Rule Version: '2'
  SDTMIG Version: '3.4'
  Section: Events
  Variable: --BDSYCD
- Cited Guidance: Variable Qualifier of --BODSYS
  Class: EVT
  Condition: ''
  Document: Model v1.4
  Domain: ALL
  Item: ''
  Release Notes: Findings removed since BDSYCD not in Findings.
  Rule: --BDSYCD and --BODSYS have a one-to-one relationship
  Rule ID: CG0083
  Rule Version: '2'
  SDTMIG Version: '3.2'
  Section: 2.2.2
  Variable: --BDSYCD
- Cited Guidance: Variable Qualifier of --BODSYS
  Class: EVT
  Condition: ''
  Document: Model v1.7
  Domain: ALL
  Item: ''
  Release Notes: Findings removed since BDSYCD not in Findings.
  Rule: --BDSYCD and --BODSYS have a one-to-one relationship
  Rule ID: CG0083
  Rule Version: '2'
  SDTMIG Version: '3.3'
  Section: 2.2.2
  Variable: --BDSYCD
- Cited Guidance: Events[--BODSYSCD][Variable Qualifier of BODSYS]
  Class: EVT
  Condition: ''
  Document: Model v2.0
  Domain: ALL
  Item: --BODSYS
  Release Notes: 'Cited guidance updated. Reference to model section and item updated
    per new style. Findings removed since BDSYCD not in Findings. '
  Rule: --BDSYCD and --BODSYS have a one-to-one relationship
  Rule ID: CG0083
  Rule Version: '2'
  SDTMIG Version: '3.4'
  Section: Events
  Variable: --BDSYCD
- Cited Guidance: Variable Qualifier of --TOXGR
  Class: EVT, FND
  Condition: --TOXGR not present in dataset
  Document: Model v1.4
  Domain: ALL
  Item: ''
  Release Notes: ''
  Rule: --TOX not present in dataset
  Rule ID: CG0084
  Rule Version: '2'
  SDTMIG Version: '3.2'
  Section: 2.2.2
  Variable: --TOX
- Cited Guidance: Variable Qualifier of --TOXGR
  Class: EVT, FND
  Condition: --TOXGR not present in dataset
  Document: Model v1.7
  Domain: ALL
  Item: ''
  Release Notes: ''
  Rule: --TOX not present in dataset
  Rule ID: CG0084
  Rule Version: '2'
  SDTMIG Version: '3.3'
  Section: 2.2.2
  Variable: --TOX
- Cited Guidance: Events[--TOX][Variable Qualifier of --TOXGR]|Findings[--TOX][Variable
    Qualifier of --TOXGR]
  Class: EVT, FND
  Condition: --TOXGR not present in dataset
  Document: Model v2.0
  Domain: ALL
  Item: --TOX
  Release Notes: 'Cited guidance updated. Reference to model section and item updated
    per new style. '
  Rule: --TOX not present in dataset
  Rule ID: CG0084
  Rule Version: '2'
  SDTMIG Version: '3.4'
  Section: Events|Findings
  Variable: --TOX
- Cited Guidance: 'Model v1.4[2.2.1 (Interventions )][--PRESP: Values should be "Y"
    or null.]|Model v1.4[2.2.2 (Events)][--PRESP: Values should be "Y" or null.]'
  Class: EVT, INT
  Condition: ''
  Document: Model v1.4
  Domain: NOT(DS, DV, EX)
  Item: ''
  Release Notes: ''
  Rule: --PRESP in ('Y', null)
  Rule ID: CG0085
  Rule Version: '1'
  SDTMIG Version: '3.2'
  Section: Model v1.4[2.2.1 (Interventions)]|Model v1.4[2.2.2 (Events)]
  Variable: --PRESP
- Cited Guidance: 'Model v1.7[2.2.1 (Interventions )][--PRESP: Values should be "Y"
    or null.]|Model v1.7[2.2.2 (Events)][--PRESP: Values should be "Y" or null.]'
  Class: EVT, INT
  Condition: ''
  Document: Model v1.7
  Domain: NOT(DS, DV, EX)
  Item: ''
  Release Notes: ''
  Rule: --PRESP in ('Y', null)
  Rule ID: CG0085
  Rule Version: '1'
  SDTMIG Version: '3.3'
  Section: Model v1.7[2.2.1 (Interventions)]|Model v1.7[2.2.2 (Events)]
  Variable: --PRESP
- Cited Guidance: Events[--PRESP][Value is "Y" for prespecified events, null for spontaneously
    reported events.]|Interventions[--PRESP][Values should be "Y" or null.]
  Class: EVT, INT
  Condition: ''
  Document: Model v2.0
  Domain: NOT(DS, DV, EX)
  Item: --PRESP
  Release Notes: Cited guidance updated. Reference to model section and item updated
    per new style.
  Rule: --PRESP in ('Y', null)
  Rule ID: CG0085
  Rule Version: '1'
  SDTMIG Version: '3.4'
  Section: Events|Interventions
  Variable: --PRESP
- Cited Guidance: 'Model v1.4[2.2.1 (Interventions )][--PRESP: Used when a specific
    intervention is pre-specified on a CRF. Values should be "Y" or null.][--OCCUR:
    Used to record whether a pre-specified event occurred when information about the
    occurrence of a specific event is solicited.][--STAT: Used to indicate when a
    question about the occurrence of a pre-specified event was not answered. Should
    be null or hav a value of NOT DONE]|Model v1.4[2.2.2 (Events)][--PRESP: Used to
    indicate whether the event describe by --TERM was pre-specified on a CRF. Value
    is Y for pre-specified events, null for spontaneously reported events.][--OCCUR:
    Used to record whether a pre-specified event occurred when information about the
    occurrence of a specific event is solicited.][--STAT: Used to indicate when a
    question about the occurrence of a pre-specified event was not answered . Should
    be null or have a value of NOT DONE]'
  Class: EVT, INT
  Condition: --PRESP = 'Y' and --STAT = null and --OCCUR is present in dataset
  Document: Model v1.4
  Domain: NOT(AE, DS, DV, EX)
  Item: ''
  Release Notes: ''
  Rule: --OCCUR ^= null
  Rule ID: CG0086
  Rule Version: '1'
  SDTMIG Version: '3.2'
  Section: Model v1.4[2.2.1 (Interventions)]|Model v1.4[2.2.2 (Events)]
  Variable: --OCCUR
- Cited Guidance: 'Model v1.7[2.2.1 (Interventions )][--PRESP: Used when a specific
    intervention is pre-specified on a CRF. Values should be "Y" or null.][--OCCUR:
    Used to record whether a pre-specified event occurred when information about the
    occurrence of a specific event is solicited.][--STAT: Used to indicate when a
    question about the occurrence of a pre-specified event was not answered. Should
    be null or hav a value of NOT DONE]|Model v1.7[2.2.2 (Events)][--PRESP: Used to
    indicate whether the event describe by --TERM was pre-specified on a CRF. Value
    is Y for pre-specified events, null for spontaneously reported events.][--OCCUR:
    Used to record whether a pre-specified event occurred when information about the
    occurrence of a specific event is solicited.][--STAT: Used to indicate when a
    question about the occurrence of a pre-specified event was not answered . Should
    be null or have a value of NOT DONE]'
  Class: EVT, INT
  Condition: --PRESP = 'Y' and --STAT = null and --OCCUR is present in dataset
  Document: Model v1.7
  Domain: NOT(AE, DS, DV, EX)
  Item: ''
  Release Notes: ''
  Rule: --OCCUR ^= null
  Rule ID: CG0086
  Rule Version: '1'
  SDTMIG Version: '3.3'
  Section: Model v1.7[2.2.1 (Interventions)]|Model v1.7[2.2.2 (Events)]
  Variable: --OCCUR
- Cited Guidance: Events[--PRESP][An indication that the event was prospectively stated
    or detailed on the CRF. Values should be "Y" or null.]|Events|[--OCCUR][An indication
    as to whether a prespecified event has occurred.]|Events[--STAT][Used to indicate
    when a question about the occurrence of a prespecified event was not answered.
    Should be null or have a value of "NOT DONE".]|Interventions[--PRESP][An indication
    that the intervention was prospectively stated or detailed on the CRF. Values
    should be "Y" or null.]|Interventions[--OCCUR][An indication as to whether a prespecified
    intervention has occurred.]|Interventions[--STAT][Used to indicate when a question
    about the occurrence of a prespecified intervention was not answered. Should be
    null or have a value of "NOT DONE".]
  Class: EVT, INT
  Condition: --PRESP = 'Y' and --STAT = null and --OCCUR is present in dataset
  Document: Model v2.0
  Domain: NOT(AE, DS, DV, EX)
  Item: --PRESP|--OCCUR|--STAT
  Release Notes: 'Cited guidance updated. Reference to model section and item updated
    per new style. '
  Rule: --OCCUR ^= null
  Rule ID: CG0086
  Rule Version: '1'
  SDTMIG Version: '3.4'
  Section: Events|Interventions
  Variable: --OCCUR
- Cited Guidance: 'Model v1.4[2.2.1 (Interventions )][--PRESP: Used when a specific
    intervention is pre-specified on a CRF. Values should be "Y" or null.][--OCCUR:
    Used to record whether a pre-specified event occurred when information about the
    occurrence of a specific event is solicited.][--STAT: Used to indicate when a
    question about the occurrence of a pre-specified event was not answered. Should
    be null or hav a value of NOT DONE]|Model v1.4[2.2.2 (Events)][--PRESP: Used to
    indicate whether the event describe by --TERM was pre-specified on a CRF. Value
    is Y for pre-specified events, null for spontaneously reported events.][--OCCUR:
    Used to record whether a pre-specified event occurred when information about the
    occurrence of a specific event is solicited.][--STAT: Used to indicate when a
    question about the occurrence of a pre-specified event was not answered . Should
    be null or have a value of NOT DONE]'
  Class: EVT, INT
  Condition: (--PRESP ^= 'Y' and --OCCUR is present in dataset) or (--STAT=NOT DONE)
  Document: Model v1.4
  Domain: NOT(AE, DS, DV, EX)
  Item: ''
  Release Notes: ''
  Rule: --OCCUR = null
  Rule ID: CG0087
  Rule Version: '1'
  SDTMIG Version: '3.2'
  Section: Model v1.4[2.2.1 (Interventions )]|Model v1.4[2.2.2 (Events)]
  Variable: --OCCUR
- Cited Guidance: 'Model v1.7[2.2.1 (Interventions )][--PRESP: Used when a specific
    intervention is pre-specified on a CRF. Values should be "Y" or null.][--OCCUR:
    Used to record whether a pre-specified event occurred when information about the
    occurrence of a specific event is solicited.][--STAT: Used to indicate when a
    question about the occurrence of a pre-specified event was not answered. Should
    be null or hav a value of NOT DONE]|Model v1.7[2.2.2 (Events)][--PRESP: Used to
    indicate whether the event describe by --TERM was pre-specified on a CRF. Value
    is Y for pre-specified events, null for spontaneously reported events.][--OCCUR:
    Used to record whether a pre-specified event occurred when information about the
    occurrence of a specific event is solicited.][--STAT: Used to indicate when a
    question about the occurrence of a pre-specified event was not answered . Should
    be null or have a value of NOT DONE]'
  Class: EVT, INT
  Condition: (--PRESP ^= 'Y' and --OCCUR is present in dataset) or (--STAT=NOT DONE)
  Document: Model v1.7
  Domain: NOT(AE, DS, DV, EX)
  Item: ''
  Release Notes: ''
  Rule: --OCCUR = null
  Rule ID: CG0087
  Rule Version: '1'
  SDTMIG Version: '3.3'
  Section: Model v1.7[2.2.1 (Interventions )]|Model v1.7[2.2.2 (Events)]
  Variable: --OCCUR
- Cited Guidance: Events[--PRESP][An indication that the event was prospectively stated
    or detailed on the CRF. Values should be "Y" or null.]|Events|[--OCCUR][An indication
    as to whether a prespecified event has occurred.]|Events[--STAT][Used to indicate
    when a question about the occurrence of a prespecified event was not answered.
    Should be null or have a value of "NOT DONE".]|Interventions[--PRESP][An indication
    that the intervention was prospectively stated or detailed on the CRF. Values
    should be "Y" or null.]|Interventions[--OCCUR][An indication as to whether a prespecified
    intervention has occurred.]|Interventions[--STAT][Used to indicate when a question
    about the occurrence of a prespecified intervention was not answered. Should be
    null or have a value of "NOT DONE".]
  Class: EVT, INT
  Condition: (--PRESP ^= 'Y' and --OCCUR is present in dataset) or (--STAT=NOT DONE)
  Document: Model v2.0
  Domain: NOT(AE, DS, DV, EX)
  Item: --PRESP|--OCCUR|--STAT
  Release Notes: 'Cited guidance updated. Reference to model section and item updated
    per new style. '
  Rule: --OCCUR = null
  Rule ID: CG0087
  Rule Version: '1'
  SDTMIG Version: '3.4'
  Section: Events|Interventions
  Variable: --OCCUR
- Cited Guidance: 'Model v1.4[2.2.1 (Interventions )][--PRESP: Used when a specific
    intervention is pre-specified on a CRF. Values should be "Y" or null.][--OCCUR:
    Used to record whether a pre-specified event occurred when information about the
    occurrence of a specific event is solicited.]|Model v1.4[2.2.2 (Events)][--PRESP:
    Used to indicate whether the event describe by --TERM was pre-specified on a CRF.
    Value is Y for pre-specified events, null for spontaneously reported events.][--OCCUR:
    Used to record whether a pre-specified event occurred when information about the
    occurrence of a specific event is solicited.]'
  Class: EVT, INT
  Condition: --PRESP not present in dataset
  Document: Model v1.4
  Domain: NOT(AE, DS, DV, EX)
  Item: ''
  Release Notes: ''
  Rule: --OCCUR not present in dataset
  Rule ID: CG0088
  Rule Version: '1'
  SDTMIG Version: '3.2'
  Section: Model v1.4[2.2.1 (Interventions )]|Model v1.4[2.2.2 (Events)]
  Variable: --OCCUR
- Cited Guidance: 'Model v1.7[2.2.1 (Interventions )][--PRESP: Used when a specific
    intervention is pre-specified on a CRF. Values should be "Y" or null.][--OCCUR:
    Used to record whether a pre-specified event occurred when information about the
    occurrence of a specific event is solicited.]|Model v1.7[2.2.2 (Events)][--PRESP:
    Used to indicate whether the event describe by --TERM was pre-specified on a CRF.
    Value is Y for pre-specified events, null for spontaneously reported events.][--OCCUR:
    Used to record whether a pre-specified event occurred when information about the
    occurrence of a specific event is solicited.]'
  Class: EVT, INT
  Condition: --PRESP not present in dataset
  Document: Model v1.7
  Domain: NOT(AE, DS, DV, EX)
  Item: ''
  Release Notes: ''
  Rule: --OCCUR not present in dataset
  Rule ID: CG0088
  Rule Version: '1'
  SDTMIG Version: '3.3'
  Section: Model v1.7[2.2.1 (Interventions )]|Model v1.7[2.2.2 (Events)]
  Variable: --OCCUR
- Cited Guidance: Events[--PRESP][An indication that the event was prospectively stated
    or detailed on the CRF. Values should be "Y" or null.]|Events|[--OCCUR][An indication
    as to whether a prespecified event has occurred.]|Events[--STAT][Used to indicate
    when a question about the occurrence of a prespecified event was not answered.
    Should be null or have a value of "NOT DONE".]|Interventions[--PRESP][An indication
    that the intervention was prospectively stated or detailed on the CRF. Values
    should be "Y" or null.]|Interventions[--OCCUR][An indication as to whether a prespecified
    intervention has occurred.]|Interventions[--STAT][Used to indicate when a question
    about the occurrence of a prespecified intervention was not answered. Should be
    null or have a value of "NOT DONE".]
  Class: EVT, INT
  Condition: --PRESP not present in dataset
  Document: Model v2.0
  Domain: NOT(AE, DS, DV, EX)
  Item: --PRESP|--OCCUR|--STAT
  Release Notes: 'Cited guidance updated. Reference to model section and item updated
    per new style. '
  Rule: --OCCUR not present in dataset
  Rule ID: CG0088
  Rule Version: '1'
  SDTMIG Version: '3.4'
  Section: Events|Interventions
  Variable: --OCCUR
- Cited Guidance: 'Model v1.4[2.2.1 (Interventions )][--PRESP: Used when a specific
    intervention is pre-specified on a CRF. Values should be "Y" or null.][--OCCUR:
    Used to record whether a pre-specified event occurred when information about the
    occurrence of a specific event is solicited.]|Model v1.4[2.2.2 (Events)][--PRESP:
    Used to indicate whether the event describe by --TERM was pre-specified on a CRF.
    Value is Y for pre-specified events, null for spontaneously reported events.][--OCCUR:
    Used to record whether a pre-specified event occurred when information about the
    occurrence of a specific event is solicited.]'
  Class: EVT, INT
  Condition: --OCCUR ^= null
  Document: Model v1.4
  Domain: NOT(AE, DS, DV, EX)
  Item: ''
  Release Notes: ''
  Rule: --PRESP = 'Y'
  Rule ID: CG0089
  Rule Version: '1'
  SDTMIG Version: '3.2'
  Section: Model v1.4[2.2.1 (Interventions )]|Model v1.4[2.2.2 (Events)]
  Variable: --PRESP
- Cited Guidance: 'Model v1.7[2.2.1 (Interventions )][--PRESP: Used when a specific
    intervention is pre-specified on a CRF. Values should be "Y" or null.][--OCCUR:
    Used to record whether a pre-specified event occurred when information about the
    occurrence of a specific event is solicited.]|Model v1.7[2.2.2 (Events)][--PRESP:
    Used to indicate whether the event describe by --TERM was pre-specified on a CRF.
    Value is Y for pre-specified events, null for spontaneously reported events.][--OCCUR:
    Used to record whether a pre-specified event occurred when information about the
    occurrence of a specific event is solicited.]'
  Class: EVT, INT
  Condition: --OCCUR ^= null
  Document: Model v1.7
  Domain: NOT(AE, DS, DV, EX)
  Item: ''
  Release Notes: ''
  Rule: --PRESP = 'Y'
  Rule ID: CG0089
  Rule Version: '1'
  SDTMIG Version: '3.3'
  Section: Model v1.7[2.2.1 (Interventions )]|Model v1.7[2.2.2 (Events)]
  Variable: --PRESP
- Cited Guidance: Events[--PRESP][An indication that the event was prospectively stated
    or detailed on the CRF. Values should be "Y" or null.]|Events|[--OCCUR][An indication
    as to whether a prespecified event has occurred.]|Interventions[--PRESP][An indication
    that the intervention was prospectively stated or detailed on the CRF. Values
    should be "Y" or null.]|Interventions[--OCCUR][An indication as to whether a prespecified
    intervention has occurred.]
  Class: EVT, INT
  Condition: --OCCUR ^= null
  Document: Model v2.0
  Domain: NOT(AE, DS, DV, EX)
  Item: --PRESP|--OCCUR
  Release Notes: Cited guidance updated. Reference to model section and item updated
    per new style.
  Rule: --PRESP = 'Y'
  Rule ID: CG0089
  Rule Version: '1'
  SDTMIG Version: '3.4'
  Section: Events|Interventions
  Variable: --PRESP
- Cited Guidance: (--RFTDTC) Date/time for a fixed reference time point defined by
    --TPTREF in ISO 8601 character format.
  Class: ALL
  Condition: --RFTDTC present in dataset
  Document: Model v1.4
  Domain: ALL
  Item: Specification
  Release Notes: ''
  Rule: --TPTREF present in dataset
  Rule ID: CG0090
  Rule Version: '1'
  SDTMIG Version: '3.2'
  Section: 2.2.5 Timing Variables for All Classes
  Variable: --TPTREF
- Cited Guidance: Date/time for a fixed reference time point defined by --TPTREF.
  Class: ALL
  Condition: --RFTDTC present in dataset
  Document: Model v1.7
  Domain: ALL
  Item: 'Table 2.2.5.1: --RFTDTC'
  Release Notes: ''
  Rule: --TPTREF present in dataset
  Rule ID: CG0090
  Rule Version: '1'
  SDTMIG Version: '3.3'
  Section: 2.2.5 Timing Variables for All Classes
  Variable: --TPTREF
- Cited Guidance: The actual date or date and time of a time point that acts as a
    fixed reference for a series of planned time points, represented in a standardized
    character format. The fixed reference point is in --TPTREF.
  Class: ALL
  Condition: --RFTDTC present in dataset
  Document: Model v2.0
  Domain: ALL
  Item: --RFTDTC
  Release Notes: 'Cited guidance updated. Reference to model section and item updated
    per new style. '
  Rule: --TPTREF present in dataset
  Rule ID: CG0090
  Rule Version: '1'
  SDTMIG Version: '3.4'
  Section: Timing
  Variable: --TPTREF
- Cited Guidance: The description of the time when a protocol-defined activity is
    planned to occur, used for study data tabulation.
  Class: ALL
  Condition: --TPTNUM present in dataset
  Document: Model v2.0
  Domain: ALL
  Item: --TPT
  Release Notes: Cited guidance updated. Reference to model section and item updated
    per new style.
  Rule: --TPT present in dataset
  Rule ID: CG0091
  Rule Version: '1'
  SDTMIG Version: '3.4'
  Section: Timing
  Variable: --TPT
- Cited Guidance: 'Model v1.4[2.2.5 Timing Variables for All Classes][Specification][(--TPTREF)
    Description of the fixed reference point referred to by --ELTM, --TPTNUM, and
    --TPT. Examples: PREVIOUS DOSE, PREVIOUS MEAL.]|IG v3.2[4.1.4.10 Representing
    Time Points][If the protocol describes the scheduling of a dose using a reference
    intervention or assessment, then --TPTREF should be populated, even if it does
    not contribute to uniqueness. The fact that time points are related to a reference
    time point, and what that reference time point is, are important for interpreting
    the data collected at the time point.]'
  Class: ALL
  Condition: --ELTM present in dataset
  Document: Model v1.4|IG v3.2
  Domain: ALL
  Item: Model v1.4[2.2.5 Timing Variables for All Classes][Specification]
  Release Notes: Expanded cited guidance to more clearly identify that --ELTM is an
    elapsed time requiring a reference time point.
  Rule: --TPTREF present in dataset
  Rule ID: CG0092
  Rule Version: '1'
  SDTMIG Version: '3.2'
  Section: Model v1.4[2.2.5 Timing Variables for All Classes]|IG v3.2[4.1.4.10 Representing
    Time Points]
  Variable: --TPTREF
- Cited Guidance: 'Model v1.7[2.2.5 Timing Variables for All Classes][Table 2.2.5.1:
    --TPTREF]Description of the fixed reference point referred to by --ELTM, --TPTNUM,
    --TPT, --STINT, and --ENINT. Examples: "PREVIOUS DOSE", "PREVIOUS MEAL".]|IG v3.3[4.4.10
    Representing Time Points][If the protocol describes the scheduling of a dose using
    a reference intervention or assessment, then --TPTREF should be populated, even
    if it does not contribute to uniqueness. The fact that time points are related
    to a reference time point, and what that reference time point is, are important
    for interpreting the data collected at the time point.]'
  Class: ALL
  Condition: --ELTM present in dataset
  Document: Model v1.7|IG v3.3
  Domain: ALL
  Item: 'Model v1.7[2.2.5 Timing Variables for All Classes][Table 2.2.5.1: --TPTREF]'
  Release Notes: Expanded cited guidance to more clearly identify that --ELTM is an
    elapsed time requiring a reference time point.
  Rule: --TPTREF present in dataset
  Rule ID: CG0092
  Rule Version: '1'
  SDTMIG Version: '3.3'
  Section: Model v1.7[2.2.5 Timing Variables for All Classes]|IG v3.3[4.4.10 Representing
    Time Points]
  Variable: --TPTREF
- Cited Guidance: "The description of a time point that acts as a fixed reference\
    \ for a series of planned time points, used for study data tabulation.\_Description\
    \ of the fixed reference point referred to by --ELTM, --TPTNUM, --TPT, --STINT,\
    \ and --ENINT."
  Class: ALL
  Condition: --ELTM present in dataset
  Document: Model v2.0
  Domain: ALL
  Item: --TPTREF
  Release Notes: Cited guidance updated.
  Rule: --TPTREF present in dataset
  Rule ID: CG0092
  Rule Version: '1'
  SDTMIG Version: '3.4'
  Section: Timing
  Variable: --TPTREF
- Cited Guidance: '(--TPTREF) Description of the fixed reference point referred to
    by --ELTM, --TPTNUM, and --TPT. Examples: PREVIOUS DOSE, PREVIOUS MEAL.'
  Class: ALL
  Condition: --ELTM, --TPTNUM, and --TPT not present in dataset
  Document: Model v1.4
  Domain: ALL
  Item: Specification
  Release Notes: ''
  Rule: --TPTREF not present in dataset
  Rule ID: CG0093
  Rule Version: '1'
  SDTMIG Version: '3.2'
  Section: 2.2.5 Timing Variables for All Classes
  Variable: --TPTREF
- Cited Guidance: 'Description of the fixed reference point referred to by --ELTM,
    --TPTNUM, --TPT, --STINT, and --ENINT. Examples: "PREVIOUS DOSE", "PREVIOUS MEAL".'
  Class: ALL
  Condition: --ELTM, --TPTNUM, and --TPT not present in dataset
  Document: Model v1.7
  Domain: ALL
  Item: 'Table 2.2.5.1: --TPTREF'
  Release Notes: ''
  Rule: --TPTREF not present in dataset
  Rule ID: CG0093
  Rule Version: '1'
  SDTMIG Version: '3.3'
  Section: 2.2.5 Timing Variables for All Classes
  Variable: --TPTREF
- Cited Guidance: "The description of a time point that acts as a fixed reference\
    \ for a series of planned time points, used for study data tabulation.\_Description\
    \ of the fixed reference point referred to by --ELTM, --TPTNUM, --TPT, --STINT,\
    \ and --ENINT."
  Class: ALL
  Condition: --ELTM, --TPTNUM, and --TPT not present in dataset
  Document: Model v2.0
  Domain: ALL
  Item: --TPTREF
  Release Notes: 'Cited guidance updated. Reference to model section and item updated
    per new style. '
  Rule: --TPTREF not present in dataset
  Rule ID: CG0093
  Rule Version: '1'
  SDTMIG Version: '3.4'
  Section: Timing
  Variable: --TPTREF
- Cited Guidance: Reason not done. Used in conjunction with --STAT when value is NOT
    DONE.
  Class: ALL
  Condition: --REASND ^= null
  Document: Model v1.4
  Domain: NOT(EX, AE, DS, DV, IE)
  Item: The Findings Observation Class
  Release Notes: ''
  Rule: --STAT = 'NOT DONE'
  Rule ID: CG0094
  Rule Version: '1'
  SDTMIG Version: '3.2'
  Section: 2.2.3
  Variable: --STAT
- Cited Guidance: Reason not done. Used in conjunction with --STAT when value is "NOT
    DONE".
  Class: ALL
  Condition: --REASND ^= null
  Document: Model v1.7
  Domain: NOT(EX, AE, DS, DV, IE)
  Item: 'Table 2.2.1.1, 2.2.2.1, 2.2.3.1: --REASND'
  Release Notes: ''
  Rule: --STAT = 'NOT DONE'
  Rule ID: CG0094
  Rule Version: '1'
  SDTMIG Version: '3.3'
  Section: 2.2.1|2.2.3
  Variable: --STAT
- Cited Guidance: Events[The explanation for why requested information was not available.
    Used in conjunction with --STAT when value is "NOT DONE".]|Interventions[The explanation
    for why requested information was not available. Used in conjunction with --STAT
    when value is "NOT DONE".]|Findings[The explanation for why requested information
    was not available. Used in conjunction with --STAT when value is "NOT DONE".]
  Class: ALL
  Condition: --REASND ^= null
  Document: Model v2.0
  Domain: NOT(EX, AE, DS, DV, IE)
  Item: --REASND
  Release Notes: Cited guidance updated. Reference to model section and item updated
    per new style.
  Rule: --STAT = 'NOT DONE'
  Rule ID: CG0094
  Rule Version: '1'
  SDTMIG Version: '3.4'
  Section: Interventions|Events|Findings
  Variable: --STAT
- Cited Guidance: Qualifier for anatomical location further detailing laterality.
  Class: ALL
  Condition: --LOC not present in dataset
  Document: Model v1.4
  Domain: ALL
  Item: ''
  Release Notes: Domain expanded to ALL.
  Rule: --LAT not present in dataset
  Rule ID: CG0095
  Rule Version: '2'
  SDTMIG Version: '3.2'
  Section: 2.2.2
  Variable: --LAT
- Cited Guidance: Qualifier for anatomical location further detailing laterality.
  Class: ALL
  Condition: --LOC not present in dataset
  Document: Model v1.7
  Domain: ALL
  Item: 'Table 3.2.2: --LAT'
  Release Notes: Domain expanded to ALL.
  Rule: --LAT not present in dataset
  Rule ID: CG0095
  Rule Version: '2'
  SDTMIG Version: '3.3'
  Section: 2.2.2
  Variable: --LAT
- Cited Guidance: Events[Variable Qualifier of --LOC]|Interventions[Variable Qualifier
    of --LOC]|Findings[Variable Qualifier of --LOC]
  Class: ALL
  Condition: --LOC not present in dataset
  Document: Model v2.0
  Domain: ALL
  Item: --LAT
  Release Notes: Cited guidance updated. Reference to model section and item updated
    per new style.
  Rule: --LAT not present in dataset
  Rule ID: CG0095
  Rule Version: '2'
  SDTMIG Version: '3.4'
  Section: Events|Interventions|Findings
  Variable: --LAT
- Cited Guidance: IG v3.2[6.1][Assumption 2c][CMDECOD is the standardized medication/therapy
    term derived by the sponsor from the coding dictionary. It is expected that the
    reported term (CMTRT) or the modified term (CMMODIFY) will be coded using a standard
    dictionary.]|IG v3.2[6.1][Specification][Standardized or dictionary-derived text
    description of CMTRT or CMMODIFY. Equivalent to the generic medication name in
    WHO Drug. The sponsor is expected to provide the dictionary name and version used
    to map the terms utilizing the define.xml external codelist attributes. If an
    intervention term does not have a decode value in the dictionary then CMDECOD
    will be left blank.]
  Class: INT
  Condition: CMTRT has a decode value in the dictionary
  Document: IG v3.2
  Domain: CM
  Item: IG v3.2[6.1][Assumption 2c]|IG v3.2[6.1][Specification]
  Release Notes: Reformatted Condition, no change to rule.
  Rule: CMDECOD ^= null
  Rule ID: CG0096
  Rule Version: '1'
  SDTMIG Version: '3.2'
  Section: IG v3.2[6.1]
  Variable: CMDECOD
- Cited Guidance: IG v3.3[6.1.2][Assumption 2c][CMDECOD is the standardized medication/therapy
    term derived by the sponsor from the coding dictionary. It is expected that the
    reported term (CMTRT) or the modified term (CMMODIFY) will be coded using a standard
    dictionary.]|IG v3.3[6.1.2][Specification][Standardized or dictionary-derived
    text description of CMTRT or CMMODIFY. Equivalent to the generic medication name
    in WHO Drug. The sponsor is expected to provide the dictionary name and version
    used to map the terms utilizing the define.xml external codelist attributes. If
    an intervention term does not have a decode value in the dictionary then CMDECOD
    will be left blank.]
  Class: INT
  Condition: CMTRT has a decode value in the dictionary
  Document: IG v3.3
  Domain: CM
  Item: IG v3.3[6.1.2][Assumption 2c]|IG v3.3[6.1.2][Specification]
  Release Notes: Reformatted Condition, no change to rule.
  Rule: CMDECOD ^= null
  Rule ID: CG0096
  Rule Version: '1'
  SDTMIG Version: '3.3'
  Section: IG v3.3[6.1.2]
  Variable: CMDECOD
- Cited Guidance: ''
  Class: INT
  Condition: CMTRT has a decode value in the dictionary
  Document: ''
  Domain: CM
  Item: ''
  Release Notes: No Change
  Rule: CMDECOD ^= null
  Rule ID: CG0096
  Rule Version: '1'
  SDTMIG Version: '3.4'
  Section: ''
  Variable: CMDECOD
- Cited Guidance: Verbatim medication name that is either pre-printed or collected
    on a CRF.
  Class: INT
  Condition: ''
  Document: IG v3.2
  Domain: CM
  Item: Specification
  Release Notes: ''
  Rule: CMTRT = collected on CRF
  Rule ID: CG0097
  Rule Version: '1'
  SDTMIG Version: '3.2'
  Section: '6.1'
  Variable: CMTRT
- Cited Guidance: Verbatim medication name that is either pre-printed or collected
    on a CRF.
  Class: INT
  Condition: ''
  Document: IG v3.3
  Domain: CM
  Item: Specification
  Release Notes: ''
  Rule: CMTRT = collected on CRF
  Rule ID: CG0097
  Rule Version: '1'
  SDTMIG Version: '3.3'
  Section: 6.1.2
  Variable: CMTRT
- Cited Guidance: Verbatim medication name that is either pre-printed or collected
    on a CRF.
  Class: INT
  Condition: ''
  Document: IG v3.4
  Domain: CM
  Item: Specification
  Release Notes: No Change
  Rule: CMTRT = collected on CRF
  Rule ID: CG0097
  Rule Version: '1'
  SDTMIG Version: '3.4'
  Section: 6.1.2
  Variable: CMTRT
- Cited Guidance: CMTRT should only include the medication/therapy name and should
    not include dosage, formulation, or other qualifying information.
  Class: INT
  Condition: ''
  Document: IG v3.2
  Domain: CM
  Item: Assumption 2a
  Release Notes: ''
  Rule: CMTRT = collected medication name only
  Rule ID: CG0098
  Rule Version: '1'
  SDTMIG Version: '3.2'
  Section: '6.1'
  Variable: CMTRT
- Cited Guidance: CMTRT should only include the medication/therapy name and should
    not include dosage, formulation, or other qualifying information.
  Class: INT
  Condition: ''
  Document: IG v3.3
  Domain: CM
  Item: Assumption 2a
  Release Notes: ''
  Rule: CMTRT = collected medication name only
  Rule ID: CG0098
  Rule Version: '1'
  SDTMIG Version: '3.3'
  Section: 6.1.2
  Variable: CMTRT
- Cited Guidance: CMTRT should only include the medication/therapy name and should
    not include dosage, formulation, or other qualifying information.
  Class: INT
  Condition: ''
  Document: IG v3.4
  Domain: CM
  Item: Assumption 2a
  Release Notes: No Change
  Rule: CMTRT = collected medication name only
  Rule ID: CG0098
  Rule Version: '1'
  SDTMIG Version: '3.4'
  Section: 6.1.2
  Variable: CMTRT
- Cited Guidance: If the value for --TRT is modified for coding purposes, then the
    modified text is placed here.
  Class: INT
  Condition: --TRT modified
  Document: Model v1.4
  Domain: CM, SU
  Item: ''
  Release Notes: ''
  Rule: --MODIFY ^= null
  Rule ID: CG0099
  Rule Version: '1'
  SDTMIG Version: '3.2'
  Section: 2.2.1
  Variable: --MODIFY
- Cited Guidance: If the value for --TRT is modified for coding purposes, then the
    modified text is placed here.
  Class: INT
  Condition: --TRT modified
  Document: Model v1.7
  Domain: CM, SU
  Item: ''
  Release Notes: ''
  Rule: --MODIFY ^= null
  Rule ID: CG0099
  Rule Version: '1'
  SDTMIG Version: '3.3'
  Section: 2.2.1
  Variable: --MODIFY
- Cited Guidance: A value which represents an alteration to a collected value for
    coding purposes. Synonym Qualifier of --TRT.
  Class: INT
  Condition: --TRT modified
  Document: Model v2.0
  Domain: CM, SU
  Item: --MODIFY
  Release Notes: Cited guidance updated. Reference to model section and item updated
    per new style.
  Rule: --MODIFY ^= null
  Rule ID: CG0099
  Rule Version: '1'
  SDTMIG Version: '3.4'
  Section: Interventions
  Variable: --MODIFY
- Cited Guidance: IG v3.2[6.1][Assumption 4a][For example, if 0 tablets are taken
    within a timeframe or 0 mL infused at a visit, then ECOCCUR = 'N' is the standard
    representation of the collected doses not taken, not given, or missed. Dose amount
    variables (e.g., ECDOSE, ECDOSTXT) must not be set to zero (0) as an alternative
    method for indicating doses not taken, not given, or missed.]|IG v3.2[6.1][Assumption
    4b][Qualifiers that indicate dose amount (e.g., ECDOSE, ECDOSTXT) may be populated
    with positive (non-zero) values in cases where the sponsor feels it is necessary
    and/or appropriate to represent specific dose amounts not taken, not given, or
    missed.]
  Class: INT
  Condition: ECOCCUR ^= 'N' and ECSTAT = null and ECDOSTXT = null
  Document: IG v3.2
  Domain: EC
  Item: IG v3.2[6.1][Assumption 4a]|IG v3.2[6.1][Assumption 4b]
  Release Notes: ''
  Rule: ECDOSE > 0
  Rule ID: CG0100
  Rule Version: '2'
  SDTMIG Version: '3.2'
  Section: IG v3.2[6.1]
  Variable: ECDOSE
- Cited Guidance: Assumption 4a[For example, if 0 tablets are taken within a timeframe
    or 0 mL infused at a visit, then ECOCCUR = 'N' is the standard representation
    of the collected doses not taken, not given, or missed. Dose amount variables
    (e.g., ECDOSE, ECDOSTXT) must not be set to zero (0) as an alternative method
    for indicating doses not taken, not given, or missed.]|Assumption 4b[Qualifiers
    that indicate dose amount (e.g., ECDOSE, ECDOSTXT) may be populated with positive
    (non-zero) values in cases where the sponsor feels it is necessary and/or appropriate
    to represent specific dose amounts not taken, not given, or missed.]
  Class: INT
  Condition: ECOCCUR ^= 'N' and ECSTAT = null and ECDOSTXT = null
  Document: IG v3.3
  Domain: EC
  Item: Assumption 4a|Assumption 4b
  Release Notes: ''
  Rule: ECDOSE > 0
  Rule ID: CG0100
  Rule Version: '2'
  SDTMIG Version: '3.3'
  Section: 6.1.3.2
  Variable: ECDOSE
- Cited Guidance: Assumption 4a[For example, if 0 tablets are taken within a timeframe
    or 0 mL infused at a visit, then ECOCCUR = 'N' is the standard representation
    of the collected doses not taken, not given, or missed. Dose amount variables
    (e.g., ECDOSE, ECDOSTXT) must not be set to zero (0) as an alternative method
    for indicating doses not taken, not given, or missed.]|Assumption 4b[Qualifiers
    that indicate dose amount (e.g., ECDOSE, ECDOSTXT) may be populated with positive
    (non-zero) values in cases where the sponsor feels it is necessary and/or appropriate
    to represent specific dose amounts not taken, not given, or missed.]
  Class: INT
  Condition: ECOCCUR ^= 'N' and ECSTAT = null and ECDOSTXT = null
  Document: IG v3.4
  Domain: EC
  Item: Assumption 4a|Assumption 4b
  Release Notes: No Change
  Rule: ECDOSE > 0
  Rule ID: CG0100
  Rule Version: '2'
  SDTMIG Version: '3.4'
  Section: 6.1.3.2
  Variable: ECDOSE
- Cited Guidance: IG v3.2[6.1][Assumption 4a][For example, if 0 tablets are taken
    within a timeframe or 0 mL infused at a visit, then ECOCCUR = 'N' is the standard
    representation of the collected doses not taken, not given, or missed. Dose amount
    variables (e.g., ECDOSE, ECDOSTXT) must not be set to zero (0) as an alternative
    method for indicating doses not taken, not given, or missed.]|IG v3.2[6.1][Assumption
    4b][Qualifiers that indicate dose amount (e.g., ECDOSE, ECDOSTXT) may be populated
    with positive (non-zero) values in cases where the sponsor feels it is necessary
    and/or appropriate to represent specific dose amounts not taken, not given, or
    missed.]
  Class: INT
  Condition: ECOCCUR = 'N'
  Document: IG v3.2
  Domain: EC
  Item: IG v3.2[6.1][Assumption 4a]|IG v3.2[6.1][Assumption 4b]
  Release Notes: Rule updated from "ECDOSE = null".
  Rule: ECDOSE = null or > 0
  Rule ID: CG0101
  Rule Version: '2'
  SDTMIG Version: '3.2'
  Section: IG v3.2[6.1]
  Variable: ECDOSE
- Cited Guidance: IG v3.3[6.1.3.2][Assumption 4a][For example, if 0 tablets are taken
    within a timeframe or 0 mL infused at a visit, then ECOCCUR = 'N' is the standard
    representation of the collected doses not taken, not given, or missed. Dose amount
    variables (e.g., ECDOSE, ECDOSTXT) must not be set to zero (0) as an alternative
    method for indicating doses not taken, not given, or missed.]|IIG v3.3[6.1.3.2][Assumption
    4b][Qualifiers that indicate dose amount (e.g., ECDOSE, ECDOSTXT) may be populated
    with positive (non-zero) values in cases where the sponsor feels it is necessary
    and/or appropriate to represent specific dose amounts not taken, not given, or
    missed.]
  Class: INT
  Condition: ECOCCUR = 'N'
  Document: IG v3.3
  Domain: EC
  Item: IG v3.3[6.1.3.2][Assumption 4a]|IG v3.3[6.1.3.2][Assumption 4b]
  Release Notes: Rule updated from "ECDOSE = null".
  Rule: ECDOSE = null or > 0
  Rule ID: CG0101
  Rule Version: '2'
  SDTMIG Version: '3.3'
  Section: IG v3.3[6.1.3.2]
  Variable: ECDOSE
- Cited Guidance: IG v3.4[6.1.3.2][Assumption 4a][For example, if 0 tablets are taken
    within a timeframe or 0 mL is  infused at a visit, then ECOCCUR = 'N' is the standard
    representation of the collected doses not taken, not given, or missed. Dose amount
    variables (e.g., ECDOSE, ECDOSTXT) must not be set to zero (0) as an alternative
    method for indicating doses not taken, not given, or missed.]|IG v3.4[6.1.3.2][Assumption
    4b][Qualifiers that indicate dose amount (e.g., ECDOSE, ECDOSTXT) may be populated
    with positive (non-zero) values in cases where the sponsor feels it is necessary
    and/or appropriate to represent specific dose amounts not taken, not given, or
    missed.]
  Class: INT
  Condition: ECOCCUR = 'N'
  Document: IG v3.4
  Domain: EC
  Item: ''
  Release Notes: Cited guidance from 6.1.3.2 Assumption 4A updated slightly in SDTMIG
    v3.4
  Rule: ECDOSE = null or > 0
  Rule ID: CG0101
  Rule Version: '2'
  SDTMIG Version: '3.4'
  Section: 6.1.3.2
  Variable: ECDOSE
- Cited Guidance: Doses of placebo should be represented by EXTRT = 'PLACEBO' and
    EXDOSE = 0 (indicating 0 mg of active ingredient was taken or administered).
  Class: INT
  Condition: EXTRT = 'PLACEBO'
  Document: IG v3.2
  Domain: EX
  Item: Assumption 2b
  Release Notes: ''
  Rule: EXDOSE = 0
  Rule ID: CG0102
  Rule Version: '1'
  SDTMIG Version: '3.2'
  Section: '6.1'
  Variable: EXDOSE
- Cited Guidance: Doses of placebo should be represented by EXTRT = 'PLACEBO' and
    EXDOSE = 0 (indicating 0 mg of active ingredient was taken or administered).
  Class: INT
  Condition: EXTRT = 'PLACEBO'
  Document: IG v3.3
  Domain: EX
  Item: Assumption 2b
  Release Notes: ''
  Rule: EXDOSE = 0
  Rule ID: CG0102
  Rule Version: '1'
  SDTMIG Version: '3.3'
  Section: 6.1.3.1
  Variable: EXDOSE
- Cited Guidance: Doses of placebo should be represented by EXTRT = "PLACEBO" and
    EXDOSE = "0" (indicating 0 mg of active ingredient was taken or administered).
  Class: INT
  Condition: EXTRT = 'PLACEBO'
  Document: IG v3.4
  Domain: EX
  Item: Assumption 2b
  Release Notes: No Change
  Rule: EXDOSE = 0
  Rule ID: CG0102
  Rule Version: '1'
  SDTMIG Version: '3.4'
  Section: 6.1.3.1
  Variable: EXDOSE
- Cited Guidance: Units for EXDOSE, EXDOSTOT, or EXDOSTXT representing protocol-specified
    values.
  Class: INT
  Condition: ''
  Document: IG v3.2
  Domain: EX
  Item: Specification
  Release Notes: ''
  Rule: EXDOSU = protocol-specified unit
  Rule ID: CG0103
  Rule Version: '1'
  SDTMIG Version: '3.2'
  Section: '6.1'
  Variable: EXDOSU
- Cited Guidance: Units for EXDOSE, EXDOSTOT, or EXDOSTXT representing protocol-specified
    values.
  Class: INT
  Condition: ''
  Document: IG v3.3
  Domain: EX
  Item: Specification
  Release Notes: ''
  Rule: EXDOSU = protocol-specified unit
  Rule ID: CG0103
  Rule Version: '1'
  SDTMIG Version: '3.3'
  Section: 6.1.3.1
  Variable: EXDOSU
- Cited Guidance: Units for EXDOSE, EXDOSTOT, or EXDOSTXT representing protocol-specified
    values.
  Class: INT
  Condition: ''
  Document: IG v3.4
  Domain: EX
  Item: Specification
  Release Notes: No Change
  Rule: EXDOSU = protocol-specified unit
  Rule ID: CG0103
  Rule Version: '1'
  SDTMIG Version: '3.4'
  Section: 6.1.3.1
  Variable: EXDOSU
- Cited Guidance: Name of the protocol-specified study treatment given during the
    dosing period for the observation.
  Class: INT
  Condition: ''
  Document: IG v3.2
  Domain: EX
  Item: Specification
  Release Notes: ''
  Rule: EXTRT = protocol-specified treatment
  Rule ID: CG0104
  Rule Version: '1'
  SDTMIG Version: '3.2'
  Section: '6.1'
  Variable: EXTRT
- Cited Guidance: Name of the protocol-specified study treatment given during the
    dosing period for the observation.
  Class: INT
  Condition: ''
  Document: IG v3.3
  Domain: EX
  Item: Specification
  Release Notes: ''
  Rule: EXTRT = protocol-specified treatment
  Rule ID: CG0104
  Rule Version: '1'
  SDTMIG Version: '3.3'
  Section: 6.1.3.1
  Variable: EXTRT
- Cited Guidance: Name of the protocol-specified study treatment given during the
    dosing period for the observation.
  Class: INT
  Condition: ''
  Document: IG v3.4
  Domain: EX
  Item: Specification
  Release Notes: No Change
  Rule: EXTRT = protocol-specified treatment
  Rule ID: CG0104
  Rule Version: '1'
  SDTMIG Version: '3.4'
  Section: 6.1.3.1
  Variable: EXTRT
- Cited Guidance: When the EC domain (See Section 6.1.2.3) is implemented in conjunction
    with the EX domain, EXVAMT and EXVAMTU should not be used in EX; collected values
    instead would be represented in ECDOSE and ECDOSU
  Class: INT
  Condition: EC domain is present
  Document: IG v3.2
  Domain: EX
  Item: Assumption 6c
  Release Notes: ''
  Rule: EXVAMT not present in dataset
  Rule ID: CG0105
  Rule Version: '1'
  SDTMIG Version: '3.2'
  Section: '6.1'
  Variable: EXVAMT
- Cited Guidance: When the EC domain is implemented in conjunction with the EX domain,
    EXVAMT and EXVAMTU should not be used in EX; collected values instead would be
    represented in ECDOSE and ECDOSU.
  Class: INT
  Condition: EC domain is present
  Document: IG v3.3
  Domain: EX
  Item: Assumption 6c
  Release Notes: ''
  Rule: EXVAMT not present in dataset
  Rule ID: CG0105
  Rule Version: '1'
  SDTMIG Version: '3.3'
  Section: 6.1.3.1
  Variable: EXVAMT
- Cited Guidance: When the EC domain is implemented in conjunction with the EX domain,
    EXVAMT and EXVAMTU should not be used in EX; collected values instead would be
    represented in ECDOSE and ECDOSU.
  Class: INT
  Condition: EC domain is present
  Document: IG v3.4
  Domain: EX
  Item: Assumption 6c
  Release Notes: No Change
  Rule: EXVAMT not present in dataset
  Rule ID: CG0105
  Rule Version: '1'
  SDTMIG Version: '3.4'
  Section: 6.1.3.1
  Variable: EXVAMT
- Cited Guidance: '[--TRTV:Vehicle for administration of treatment, such as a liquid
    in which the treatment drug is dissolved. Example: SALINE.][--VAMT: Amount of
    the prepared product (treatment + vehicle) administered or given. Note: should
    not be diluent amount alone.][--VAMTU: Units for the prepared product (treatment
    + vehicle). Examples: mL, mg.]'
  Class: INT
  Condition: --TRTV = null
  Document: Model v1.4
  Domain: ALL
  Item: ''
  Release Notes: ''
  Rule: --VAMT = null
  Rule ID: CG0106
  Rule Version: '1'
  SDTMIG Version: '3.2'
  Section: 2.2.1
  Variable: --VAMT
- Cited Guidance: '[--TRTV:Vehicle for administration of treatment, such as a liquid
    in which the treatment drug is dissolved. Example: SALINE.][--VAMT: Amount of
    the prepared product (treatment + vehicle) administered or given. Note: should
    not be diluent amount alone.][--VAMTU: Units for the prepared product (treatment
    + vehicle). Examples: mL, mg.]'
  Class: INT
  Condition: --TRTV = null
  Document: Model v1.7
  Domain: ALL
  Item: ''
  Release Notes: ''
  Rule: --VAMT = null
  Rule ID: CG0106
  Rule Version: '1'
  SDTMIG Version: '3.3'
  Section: 2.2.1
  Variable: --VAMT
- Cited Guidance: --TRTV[A carrier or inert medium in which a medicinally active agent
    is administered.]|--VAMT[Amount of the prepared product (treatment plus vehicle)
    administered.]
  Class: INT
  Condition: --TRTV = null
  Document: Model v2.0
  Domain: ALL
  Item: --TRTV|--VAMT
  Release Notes: Cited guidance updated. Reference to model section and item updated
    per new style.
  Rule: --VAMT = null
  Rule ID: CG0106
  Rule Version: '1'
  SDTMIG Version: '3.4'
  Section: Interventions
  Variable: --VAMT
- Cited Guidance: When the EC domain (See Section 6.1.2.3) is implemented in conjunction
    with the EX domain, EXVAMT and EXVAMTU should not be used in EX; collected values
    instead would be represented in ECDOSE and ECDOSU
  Class: INT
  Condition: EC domain is present
  Document: IG v3.2
  Domain: EX
  Item: Assumption 6c
  Release Notes: ''
  Rule: EXVAMTU not present in dataset
  Rule ID: CG0107
  Rule Version: '1'
  SDTMIG Version: '3.2'
  Section: '6.1'
  Variable: EXVAMTU
- Cited Guidance: When the EC domain (See Section 6.1.2.3) is implemented in conjunction
    with the EX domain, EXVAMT and EXVAMTU should not be used in EX; collected values
    instead would be represented in ECDOSE and ECDOSU
  Class: INT
  Condition: EC domain is present
  Document: IG v3.3
  Domain: EX
  Item: Assumption 6c
  Release Notes: ''
  Rule: EXVAMTU not present in dataset
  Rule ID: CG0107
  Rule Version: '1'
  SDTMIG Version: '3.3'
  Section: 6.1.3.1
  Variable: EXVAMTU
- Cited Guidance: When the EC domain is implemented in conjunction with the EX domain,
    EXVAMT and EXVAMTU should not be used in EX; collected values instead would be
    represented in ECDOSE and ECDOSU.
  Class: INT
  Condition: EC domain is present
  Document: IG v3.4
  Domain: EX
  Item: Assumption 6c
  Release Notes: Cited guidance updated slightly in SDTMIG v3.4
  Rule: EXVAMTU not present in dataset
  Rule ID: CG0107
  Rule Version: '1'
  SDTMIG Version: '3.4'
  Section: 6.1.3.1
  Variable: EXVAMTU
- Cited Guidance: '--TRTV:Vehicle for administration of treatment, such as a liquid
    in which the treatment drug is dissolved. Example: SALINE. --VAMT: Amount of the
    prepared product (treatment + vehicle) administered or given. Note: should not
    be diluent amount alone. --VAMTU: Units for the prepared product (treatment +
    vehicle). Examples: mL, mg.'
  Class: INT
  Condition: --TRTV = null
  Document: Model v1.4
  Domain: ALL
  Item: ''
  Release Notes: Updated Variable from "EXVAMTU". Updated Rule from "EXVAMTU = null".
    Updated Condition from "EXTRTV = null".
  Rule: --VAMTU = null
  Rule ID: CG0108
  Rule Version: '2'
  SDTMIG Version: '3.2'
  Section: 2.2.1
  Variable: --VAMTU
- Cited Guidance: '--TRTV:Vehicle for administration of treatment, such as a liquid
    in which the treatment drug is dissolved. Example: SALINE. --VAMT: Amount of the
    prepared product (treatment + vehicle) administered or given. Note: should not
    be diluent amount alone. --VAMTU: Units for the prepared product (treatment +
    vehicle). Examples: mL, mg.'
  Class: INT
  Condition: --TRTV = null
  Document: Model v1.7
  Domain: ALL
  Item: ''
  Release Notes: Updated Variable from "EXVAMTU". Updated Rule from "EXVAMTU = null".
    Updated Condition from "EXTRTV = null".
  Rule: --VAMTU = null
  Rule ID: CG0108
  Rule Version: '2'
  SDTMIG Version: '3.3'
  Section: 2.2.1
  Variable: --VAMTU
- Cited Guidance: Variable Qualifier of --VAMT.
  Class: INT
  Condition: --TRTV = null
  Document: Model v2.0
  Domain: ALL
  Item: --VAMTU
  Release Notes: Cited guidance updated. Reference to model section and item updated
    per new style.
  Rule: --VAMTU = null
  Rule ID: CG0108
  Rule Version: '2'
  SDTMIG Version: '3.4'
  Section: Interventions
  Variable: --VAMTU
- Cited Guidance: 'Specification[ACTARMCD: Randomized subjects who were not treated
    will be given a value of NOTTRT. Values should be "SCRNFAIL" for screen failures
    and "NOTASSGN" for subjects not assigned to treatment]|Assumption 4[Subjects withdrawn
    from a trial before assignment to an Arm, if they are not screen failures, should
    have ARMCD = ''NOTASSGN'' and ARM = ''Not Assigned''.]|Assumption 10[subjects
    who are ineligible for treatment (e.g., screen failures with ARMCD=SCRNFAIL),
    subjects who were enrolled but not assigned to an arm (ARMCD=NOTASSGN), or subjects
    who were randomized but not treated (ACTARMCD=NOTTRT), RFSTDTC will be null.]'
  Class: SPC
  Condition: No records in EX for Subject
  Document: IG v3.2
  Domain: DM
  Item: Specification|Assumption 4|Assumption 10
  Release Notes: N/A for v3.3 (new variable ARMNRS)
  Rule: DM.ACTARMCD in ('SCRNFAIL', 'NOTASSGN', 'NOTTRT')
  Rule ID: CG0109
  Rule Version: '1'
  SDTMIG Version: '3.2'
  Section: '5'
  Variable: ACTARMCD
- Cited Guidance: Amount of --TRT when numeric. Not populated when --DOSTXT is populated.
  Class: INT
  Condition: --DOSTXT ^= null
  Document: Model v1.4
  Domain: ALL
  Item: --DOSE Specification
  Release Notes: Corrected source text reference.
  Rule: --DOSE = null
  Rule ID: CG0110
  Rule Version: '1'
  SDTMIG Version: '3.2'
  Section: 2.2.1
  Variable: --DOSE
- Cited Guidance: Amount of --TRT when numeric. Not populated when --DOSTXT is populated.
  Class: INT
  Condition: --DOSTXT ^= null
  Document: Model v1.7
  Domain: ALL
  Item: --DOSE Specification
  Release Notes: Corrected source text reference.
  Rule: --DOSE = null
  Rule ID: CG0110
  Rule Version: '1'
  SDTMIG Version: '3.3'
  Section: 2.2.1
  Variable: --DOSE
- Cited Guidance: Not populated when --DOSTXT is populated.
  Class: INT
  Condition: --DOSTXT ^= null
  Document: Model v2.0
  Domain: ALL
  Item: --DOSE
  Release Notes: Cited guidance updated. Reference to model section and item updated
    per new style.
  Rule: --DOSE = null
  Rule ID: CG0110
  Rule Version: '1'
  SDTMIG Version: '3.4'
  Section: Interventions
  Variable: --DOSE
- Cited Guidance: 'Amount of --TRT when non-numeric. Dosing amounts or a range of
    dosing information collected in text form. Example: 200-400. Not populated when
    --DOSE is populated.'
  Class: INT
  Condition: --DOSE ^= null
  Document: IG v3.2
  Domain: ALL
  Item: Specification
  Release Notes: ''
  Rule: --DOSTXT = null
  Rule ID: CG0111
  Rule Version: '1'
  SDTMIG Version: '3.2'
  Section: '6.1'
  Variable: --DOSTXT
- Cited Guidance: 'Dosing information collected in text form. Examples: <1 per day,
    200-400. Not populated when --DOSE is populated.'
  Class: INT
  Condition: --DOSE ^= null
  Document: Model v1.7
  Domain: ALL
  Item: Specification
  Release Notes: ''
  Rule: --DOSTXT = null
  Rule ID: CG0111
  Rule Version: '1'
  SDTMIG Version: '3.3'
  Section: 2.2.1
  Variable: --DOSTXT
- Cited Guidance: Not populated when --DOSE is populated.
  Class: INT
  Condition: --DOSE ^= null
  Document: Model v2.0
  Domain: ALL
  Item: --DOSTXT
  Release Notes: Cited guidance updated. Reference to model section and item updated
    per new style.
  Rule: --DOSTXT = null
  Rule ID: CG0111
  Rule Version: '1'
  SDTMIG Version: '3.4'
  Section: Interventions
  Variable: --DOSTXT
- Cited Guidance: 'Dosing information collected in text form. Examples: <1 per day,
    200-400. Not populated when --DOSE is populated.'
  Class: INT
  Condition: ''
  Document: Model v1.4
  Domain: ALL
  Item: 'Specification: --DOSTXT'
  Release Notes: Corrected source text reference.
  Rule: --DOSTXT value is non-numeric
  Rule ID: CG0112
  Rule Version: '1'
  SDTMIG Version: '3.2'
  Section: 2.2.1
  Variable: --DOSTXT
- Cited Guidance: 'Dosing information collected in text form. Examples: <1 per day,
    200-400. Not populated when --DOSE is populated.'
  Class: INT
  Condition: ''
  Document: Model v1.7
  Domain: ALL
  Item: Specification
  Release Notes: Corrected source text reference.
  Rule: --DOSTXT value is non-numeric
  Rule ID: CG0112
  Rule Version: '1'
  SDTMIG Version: '3.3'
  Section: 2.2.1
  Variable: --DOSTXT
- Cited Guidance: A textual description of the quantity of an agent (e.g., drug, substance,
    radiation) taken or absorbed at a single administration.
  Class: INT
  Condition: ''
  Document: Model v2.0
  Domain: ALL
  Item: --DOSTXT
  Release Notes: Cited guidance updated. Reference to model section and item updated
    per new style.
  Rule: --DOSTXT value is non-numeric
  Rule ID: CG0112
  Rule Version: '1'
  SDTMIG Version: '3.4'
  Section: Interventions
  Variable: --DOSTXT
- Cited Guidance: 'Units for --DOSE, --DOSTOT, or --DOSTXT (Examples: ng, mg, mg/kg).'
  Class: INT
  Condition: --DOSE ^= null or --DOSTOT ^= null or --DOSTXT ^= null
  Document: Model v1.4
  Domain: ALL
  Item: --DOSU Specification
  Release Notes: Corrected source text reference.
  Rule: --DOSU ^= null
  Rule ID: CG0114
  Rule Version: '1'
  SDTMIG Version: '3.2'
  Section: 2.2.1
  Variable: --DOSU
- Cited Guidance: 'Units for --DOSE, --DOSTOT, or --DOSTXT. Examples: "ng", "mg",
    "mg/kg".'
  Class: INT
  Condition: --DOSE ^= null or --DOSTOT ^= null or --DOSTXT ^= null
  Document: Model v1.7
  Domain: ALL
  Item: Specification
  Release Notes: Corrected source text reference.
  Rule: --DOSU ^= null
  Rule ID: CG0114
  Rule Version: '1'
  SDTMIG Version: '3.3'
  Section: 2.2.1
  Variable: --DOSU
- Cited Guidance: Units for --DOSE, --DOSTOT, or --DOSTXT
  Class: INT
  Condition: --DOSE ^= null or --DOSTOT ^= null or --DOSTXT ^= null
  Document: Model v2.0
  Domain: ALL
  Item: --DOSU
  Release Notes: Cited guidance updated. Reference to model section and item updated
    per new style.
  Rule: --DOSU ^= null
  Rule ID: CG0114
  Rule Version: '1'
  SDTMIG Version: '3.4'
  Section: Interventions
  Variable: --DOSU
- Cited Guidance: Qualifier for anatomical location further detailing the distribution,
    which means arrangement of, apportioning of the intervention administration.
  Class: INT, FND, EVT
  Condition: --LOC not present in dataset
  Document: Model v1.4
  Domain: ALL
  Item: --PORTOT Specification
  Release Notes: Class expanded to include Events.
  Rule: --PORTOT not present in dataset
  Rule ID: CG0115
  Rule Version: '2'
  SDTMIG Version: '3.2'
  Section: 2.2.2
  Variable: --PORTOT
- Cited Guidance: Qualifier for anatomical location further detailing the distribution,
    which means arrangement of, apportioning of the intervention administration.
  Class: INT, FND, EVT
  Condition: --LOC not present in dataset
  Document: Model v1.7
  Domain: ALL
  Item: --PORTOT Specification
  Release Notes: Class expanded to include Events.
  Rule: --PORTOT not present in dataset
  Rule ID: CG0115
  Rule Version: '2'
  SDTMIG Version: '3.3'
  Section: 2.2.1
  Variable: --PORTOT
- Cited Guidance: Events[Variable Qualifer of --LOC.]|Interventions[Variable Qualifer
    of --LOC.]|Findings[Variable Qualifer of --LOC.]
  Class: INT, FND, EVT
  Condition: --LOC not present in dataset
  Document: Model v2.0
  Domain: ALL
  Item: --PORTOT
  Release Notes: Cited guidance updated. Reference to model section and item updated
    per new style.
  Rule: --PORTOT not present in dataset
  Rule ID: CG0115
  Rule Version: '2'
  SDTMIG Version: '3.4'
  Section: Events|Interventions|Findings
  Variable: --PORTOT
- Cited Guidance: Qualifier for anatomical location further detailing directionality
    ...
  Class: INT, FND, EVT
  Condition: --LOC not present in dataset
  Document: Model v1.4
  Domain: ALL
  Item: --DIR Specification
  Release Notes: Class expanded to include Events.
  Rule: --DIR not present in dataset
  Rule ID: CG0116
  Rule Version: '2'
  SDTMIG Version: '3.2'
  Section: 2.2.2
  Variable: --DIR
- Cited Guidance: Qualifier for anatomical location further detailing directionality
    ...
  Class: INT, FND, EVT
  Condition: --LOC not present in dataset
  Document: Model v1.7
  Domain: ALL
  Item: --DIR Specification
  Release Notes: Class expanded to include Events.
  Rule: --DIR not present in dataset
  Rule ID: CG0116
  Rule Version: '2'
  SDTMIG Version: '3.3'
  Section: 2.2.2
  Variable: --DIR
- Cited Guidance: Events[Variable Qualifer of --LOC.]|Interventions[Variable Qualifer
    of --LOC.]|Findings[Variable Qualifer of --LOC.]
  Class: INT, FND, EVT
  Condition: --LOC not present in dataset
  Document: Model v2.0
  Domain: ALL
  Item: --DIR
  Release Notes: Cited guidance updated. Reference to model section and item updated
    per new style.
  Rule: --DIR not present in dataset
  Rule ID: CG0116
  Rule Version: '2'
  SDTMIG Version: '3.4'
  Section: Events|Interventions|Findings
  Variable: --DIR
- Cited Guidance: "Description of actual Arm. When an Arm is not planned (not in Trial\
    \ Arms), ACTARM will be \u201CUnplanned Treatment\u201D. Randomized subjects who\
    \ were not treated will be given a value of \u201CNot Treated\u201D. Values should\
    \ be \u201CScreen Failure\u201D for screen failures and \u201CNot Assigned\u201D\
    \ for subjects not assigned to treatment. Restricted to values in Trial Arms in\
    \ all other cases."
  Class: SPC
  Condition: ACTARM not in TA.ARM
  Document: IG v3.2
  Domain: DM
  Item: Specification
  Release Notes: N/A for v3.3 (new variable ARMNRS)
  Rule: ACTARM in ('Screen Failure', 'Not Assigned', 'Not Treated', 'Unplanned Treatment')
  Rule ID: CG0117
  Rule Version: '1'
  SDTMIG Version: '3.2'
  Section: '5'
  Variable: ACTARM
- Cited Guidance: "Description of actual Arm. When an Arm is not planned (not in Trial\
    \ Arms), ACTARM will be \u201CUnplanned Treatment\u201D. Randomized subjects who\
    \ were not treated will be given a value of \u201CNot Treated\u201D. Values should\
    \ be \u201CScreen Failure\u201D for screen failures and \u201CNot Assigned\u201D\
    \ for subjects not assigned to treatment. Restricted to values in Trial Arms in\
    \ all other cases."
  Class: SPC
  Condition: ACTARM not in ('Screen Failure', 'Not Assigned', 'Not Treated', 'Unplanned
    Treatment')
  Document: IG v3.2
  Domain: DM
  Item: Specification
  Release Notes: N/A for v3.3 (new variable ARMNRS)
  Rule: ACTARM in TA.ARM
  Rule ID: CG0118
  Rule Version: '1'
  SDTMIG Version: '3.2'
  Section: '5'
  Variable: ACTARM
- Cited Guidance: Values should be "Screen Failure" for screen failures and "Not Assigned"
    for subjects not assigned to treatment.
  Class: SPC
  Condition: ACTARM in ('Screen Failure', 'Not Assigned')
  Document: IG v3.2
  Domain: DM
  Item: Specification
  Release Notes: N/A for v3.3 (new variable ARMNRS)
  Rule: ACTARM = ARM
  Rule ID: CG0119
  Rule Version: '1'
  SDTMIG Version: '3.2'
  Section: '5'
  Variable: ACTARM
- Cited Guidance: Name of the Arm to which the subject was assigned.
  Class: SPC
  Condition: ARM not in TA.ARM
  Document: IG v3.2
  Domain: DM
  Item: Specification
  Release Notes: N/A for v3.3 (new variable ARMNRS)
  Rule: ARM in ('Screen Failure', 'Not Assigned')
  Rule ID: CG0120
  Rule Version: '1'
  SDTMIG Version: '3.2'
  Section: '5'
  Variable: ARM
- Cited Guidance: Name of the Arm to which the subject was assigned.
  Class: SPC
  Condition: ARM not in ('Screen Failure', 'Not Assigned')
  Document: IG v3.2
  Domain: DM
  Item: Specification
  Release Notes: N/A for v3.3 (new variable ARMNRS)
  Rule: ARM in TA.ARM
  Rule ID: CG0121
  Rule Version: '1'
  SDTMIG Version: '3.2'
  Section: '5'
  Variable: ARM
- Cited Guidance: Data for screen failure subjects, if submitted, should be included
    in the Demographics dataset, with ARMCD = "SCRNFAIL' and ARM = "Screen Failure".
    Subjects withdrawn from a trial before assignment to an Arm, if they are not screen
    failures, should have ARMCD ='NOTASSGN' and ARM = 'Not Assigned'.
  Class: SPC
  Condition: ARM in ('Screen Failure', 'Not Assigned')
  Document: IG v3.2
  Domain: DM
  Item: Assumption 4
  Release Notes: N/A for v3.3 (new variable ARMNRS)
  Rule: ARM = ACTARM
  Rule ID: CG0122
  Rule Version: '1'
  SDTMIG Version: '3.2'
  Section: '5'
  Variable: ARM
- Cited Guidance: ACTARMCD is limited to 20 characters and does not have special character
    restrictions.
  Class: SPC
  Condition: ''
  Document: IG v3.2
  Domain: DM
  Item: Specification
  Release Notes: ''
  Rule: ACTARMCD value length <= 20
  Rule ID: CG0123
  Rule Version: '1'
  SDTMIG Version: '3.2'
  Section: '5'
  Variable: ACTARMCD
- Cited Guidance: Code of actual Arm. ACTARMCD is limited to 20 characters. It is
    not subject to the character restrictions that apply to TESTCD.
  Class: SPC
  Condition: ''
  Document: IG v3.3
  Domain: DM
  Item: Specification
  Release Notes: ''
  Rule: ACTARMCD value length <= 20
  Rule ID: CG0123
  Rule Version: '1'
  SDTMIG Version: '3.3'
  Section: '5.2'
  Variable: ACTARMCD
- Cited Guidance: Code of actual Arm. ACTARMCD is limited to 20 characters. It is
    not subject to the character restrictions that apply to TESTCD.
  Class: SPC
  Condition: ''
  Document: IG v3.4
  Domain: DM
  Item: Specification
  Release Notes: No Change
  Rule: ACTARMCD value length <= 20
  Rule ID: CG0123
  Rule Version: '1'
  SDTMIG Version: '3.4'
  Section: '5.2'
  Variable: ACTARMCD
- Cited Guidance: Code of actual Arm. When an Arm is not planned (not in Trial Arms),
    ACTARMCD will be UNPLAN. Randomized subjects who were not treated will be given
    a value of NOTTRT. Values should be "SCRNFAIL" for screen failures and "NOTASSGN"
    for subjects not assigned to treatment. Restricted to values in Trial Arms in
    all other cases
  Class: SPC
  Condition: ACTARMCD not in TA.ARMCD
  Document: IG v3.2
  Domain: DM
  Item: Specification
  Release Notes: N/A for v3.3 (new variable ARMNRS)
  Rule: ACTARMCD in ('SCRNFAIL', 'NOTASSGN', 'NOTTRT', 'UNPLAN')
  Rule ID: CG0124
  Rule Version: '1'
  SDTMIG Version: '3.2'
  Section: '5'
  Variable: ACTARMCD
- Cited Guidance: Code of actual Arm. When an Arm is not planned (not in Trial Arms),
    ACTARMCD will be UNPLAN. Randomized subjects who were not treated will be given
    a value of NOTTRT. Values should be "SCRNFAIL" for screen failures and "NOTASSGN"
    for subjects not assigned to treatment. Restricted to values in Trial Arms in
    all other cases
  Class: SPC
  Condition: ACTARMCD not in ('SCRNFAIL', 'NOTASSGN', 'NOTTRT', 'UNPLAN')
  Document: IG v3.2
  Domain: DM
  Item: Specification
  Release Notes: N/A for v3.3 (new variable ARMNRS)
  Rule: ACTARMCD in TA.ARMCD
  Rule ID: CG0125
  Rule Version: '1'
  SDTMIG Version: '3.2'
  Section: '5'
  Variable: ACTARMCD
- Cited Guidance: Data for screen failure subjects, if submitted, should be included
    in the Demographics dataset, with ARMCD = "SCRNFAIL' and ARM = "Screen Failure".
    Subjects withdrawn from a trial before assignment to an Arm, if they are not screen
    failures, should have ARMCD ='NOTASSGN' and ARM = 'Not Assigned'.
  Class: SPC
  Condition: ARMCD not in ('SCRNFAIL', 'NOTASSGN')
  Document: IG v3.2
  Domain: DM
  Item: Assumption 4
  Release Notes: N/A for v3.3 (new variable ARMNRS)
  Rule: ARMCD in TA.ARMCD
  Rule ID: CG0126
  Rule Version: '1'
  SDTMIG Version: '3.2'
  Section: '5'
  Variable: ARMCD
- Cited Guidance: Values should be "SCRNFAIL" for screen failures and "NOTASSGN" for
    subjects not assigned to treatment.
  Class: SPC
  Condition: ACTARMCD in ('SCRNFAIL', 'NOTASSGN')
  Document: IG v3.2
  Domain: DM
  Item: Specification
  Release Notes: N/A for v3.3 (new variable ARMNRS)
  Rule: ACTARMCD = ARMCD
  Rule ID: CG0127
  Rule Version: '1'
  SDTMIG Version: '3.2'
  Section: '5'
  Variable: ACTARMCD
- Cited Guidance: Data for screen failure subjects, if submitted, should be included
    in the Demographics dataset, with ARMCD = "SCRNFAIL' and ARM = "Screen Failure".
    Subjects withdrawn from a trial before assignment to an Arm, if they are not screen
    failures, should have ARMCD ='NOTASSGN' and ARM = 'Not Assigned'.
  Class: SPC
  Condition: ARMCD not in TA.ARMCD
  Document: IG v3.2
  Domain: DM
  Item: Assumption 4
  Release Notes: N/A for v3.3 (new variable ARMNRS)
  Rule: ARMCD in ('SCRNFAIL', 'NOTASSGN')
  Rule ID: CG0128
  Rule Version: '1'
  SDTMIG Version: '3.2'
  Section: '5'
  Variable: ARMCD
- Cited Guidance: Values should be "SCRNFAIL" for screen failures and "NOTASSGN" for
    subjects not assigned to treatment.
  Class: SPC
  Condition: ARMCD in ('SCRNFAIL', 'NOTASSGN')
  Document: IG v3.2
  Domain: DM
  Item: Specification
  Release Notes: N/A for v3.3 (new variable ARMNRS)
  Rule: ARMCD = ACTARMCD
  Rule ID: CG0129
  Rule Version: '1'
  SDTMIG Version: '3.2'
  Section: '5'
  Variable: ARMCD
- Cited Guidance: Should be Y or null.
  Class: SPC
  Condition: ''
  Document: Model v1.4
  Domain: DM
  Item: ''
  Release Notes: ''
  Rule: DTHFL in ('Y',null)
  Rule ID: CG0131
  Rule Version: '1'
  SDTMIG Version: '3.2'
  Section: 2.2.6
  Variable: DTHFL
- Cited Guidance: ' Should be "Y" or null.'
  Class: SPC
  Condition: ''
  Document: Model v1.7
  Domain: DM
  Item: DTHFL Description
  Release Notes: ''
  Rule: DTHFL in ('Y',null)
  Rule ID: CG0131
  Rule Version: '1'
  SDTMIG Version: '3.3'
  Section: Table 2.2.6
  Variable: DTHFL
- Cited Guidance: Should be "Y" or null.
  Class: SPC
  Condition: ''
  Document: Model v2.0
  Domain: DM
  Item: DTHFL
  Release Notes: Reference to model section and item updated per new style
  Rule: DTHFL in ('Y',null)
  Rule ID: CG0131
  Rule Version: '1'
  SDTMIG Version: '3.4'
  Section: Demographics
  Variable: DTHFL
- Cited Guidance: For example, if a subject's Survival Status is "DEAD", the date
    of death must be stored in DM and within a final disposition record in DS.
  Class: SPC
  Condition: SS.SSSTRESC = 'DEAD'
  Document: IG v3.2
  Domain: DM
  Item: Assumption 2
  Release Notes: ''
  Rule: DTHFL = 'Y'
  Rule ID: CG0132
  Rule Version: '1'
  SDTMIG Version: '3.2'
  Section: '6.3'
  Variable: DTHFL
- Cited Guidance: For example, if a subject's Survival Status is "DEAD", the date
    of death must be stored in DM and within a final disposition record in DS.
  Class: SPC
  Condition: SS.SSSTRESC = 'DEAD'
  Document: IG v3.3
  Domain: DM
  Item: Assumption 1
  Release Notes: ''
  Rule: DTHFL = 'Y'
  Rule ID: CG0132
  Rule Version: '1'
  SDTMIG Version: '3.3'
  Section: 6.3.15
  Variable: DTHFL
- Cited Guidance: 4.5.8[4. If the subject's survival status is "dead", the Demographics
    (DM) variables DTHDTC and DTHFL must be appropriately populated.]|6.3.11[For example,
    if a subject's survival status is "DEAD", the date of death must be stored in
    DM and within a final disposition record in DS.]
  Class: SPC
  Condition: SS.SSSTRESC = 'DEAD'
  Document: IG v3.4
  Domain: DM
  Item: Accounting for Long-Term Follow-up|Assumption 1
  Release Notes: Change in section, and added similar citation in additional section
  Rule: DTHFL = 'Y'
  Rule ID: CG0132
  Rule Version: '1'
  SDTMIG Version: '3.4'
  Section: 4.5.8|6.3.11
  Variable: DTHFL
- Cited Guidance: Specification[Indicates the subject died. Should be Y or null. Should
    be populated even when the death date is unknown.]|DD Assumption 1[This domain
    captures information pertaining to the death of a subject, including the causes
    of death.]
  Class: SPC
  Condition: DD record present for subject
  Document: IG v3.2
  Domain: DM
  Item: Specification|DD Assumption 1
  Release Notes: ''
  Rule: DTHFL = 'Y'
  Rule ID: CG0133
  Rule Version: '1'
  SDTMIG Version: '3.2'
  Section: '5'
  Variable: DTHFL
- Cited Guidance: IG v3.3[5.2][Indicates the subject died. Should be Y or null. Should
    be populated even when the death date is unknown.]||IG v3.3[6.3.2][A findings
    domain that contains the diagnosis of the cause of death for a subject]
  Class: SPC
  Condition: DD record present for subject
  Document: IG v3.3
  Domain: DM
  Item: ''
  Release Notes: ''
  Rule: DTHFL = 'Y'
  Rule ID: CG0133
  Rule Version: '1'
  SDTMIG Version: '3.3'
  Section: IG v3.3[5.2]|IG v3.3[6.3.2]
  Variable: DTHFL
- Cited Guidance: 5.2 [Indicates the subject died. Should be "Y" or null. Should be
    populated even when the death date is unknown.] | 6.3.2 [A findings domain that
    contains the diagnosis of the cause of death for a subject.]
  Class: SPC
  Condition: DD record present for subject
  Document: IG v3.4
  Domain: DM
  Item: Specification | DD Description
  Release Notes: No Change
  Rule: DTHFL = 'Y'
  Rule ID: CG0133
  Rule Version: '1'
  SDTMIG Version: '3.4'
  Section: 5.2 | 6.3.2
  Variable: DTHFL
- Cited Guidance: Indicates the subject died. Should be Y or null. Should be populated
    even when the death date is unknown.
  Class: SPC
  Condition: AE.AEOUT = 'FATAL'
  Document: IG v3.2
  Domain: DM
  Item: Specification
  Release Notes: ''
  Rule: DTHFL = 'Y'
  Rule ID: CG0134
  Rule Version: '1'
  SDTMIG Version: '3.2'
  Section: '5'
  Variable: DTHFL
- Cited Guidance: Indicates the subject died. Should be Y or null. Should be populated
    even when the death date is unknown.
  Class: SPC
  Condition: AE.AEOUT = 'FATAL'
  Document: IG v3.3
  Domain: DM
  Item: Specification
  Release Notes: ''
  Rule: DTHFL = 'Y'
  Rule ID: CG0134
  Rule Version: '1'
  SDTMIG Version: '3.3'
  Section: '5.2'
  Variable: DTHFL
- Cited Guidance: Indicates the subject died. Should be Y or null. Should be populated
    even when the death date is unknown.
  Class: SPC
  Condition: AE.AEOUT = 'FATAL'
  Document: IG v3.4
  Domain: DM
  Item: Specification
  Release Notes: No Change
  Rule: DTHFL = 'Y'
  Rule ID: CG0134
  Rule Version: '1'
  SDTMIG Version: '3.4'
  Section: '5.2'
  Variable: DTHFL
- Cited Guidance: Indicates the subject died. Should be Y or null. Should be populated
    even when the death date is unknown.
  Class: SPC
  Condition: AE.AESDTH = 'Y'
  Document: IG v3.2
  Domain: DM
  Item: Specification
  Release Notes: ''
  Rule: DTHFL = 'Y'
  Rule ID: CG0135
  Rule Version: '1'
  SDTMIG Version: '3.2'
  Section: '5'
  Variable: DTHFL
- Cited Guidance: Indicates the subject died. Should be Y or null. Should be populated
    even when the death date is unknown.
  Class: SPC
  Condition: AE.AESDTH = 'Y'
  Document: IG v3.3
  Domain: DM
  Item: Specification
  Release Notes: ''
  Rule: DTHFL = 'Y'
  Rule ID: CG0135
  Rule Version: '1'
  SDTMIG Version: '3.3'
  Section: '5.2'
  Variable: DTHFL
- Cited Guidance: Indicates the subject died. Should be Y or null. Should be populated
    even when the death date is unknown.
  Class: SPC
  Condition: AE.AESDTH = 'Y'
  Document: IG v3.4
  Domain: DM
  Item: Specification
  Release Notes: No Change
  Rule: DTHFL = 'Y'
  Rule ID: CG0135
  Rule Version: '1'
  SDTMIG Version: '3.4'
  Section: '5.2'
  Variable: DTHFL
- Cited Guidance: Indicates the subject died. Should be Y or null. Should be populated
    even when the death date is unknown.
  Class: SPC
  Condition: DS.DSDECOD = 'DEATH'
  Document: IG v3.2
  Domain: DM
  Item: Specification
  Release Notes: ''
  Rule: DTHFL = 'Y'
  Rule ID: CG0136
  Rule Version: '1'
  SDTMIG Version: '3.2'
  Section: '5'
  Variable: DTHFL
- Cited Guidance: Indicates the subject died. Should be Y or null. Should be populated
    even when the death date is unknown.
  Class: SPC
  Condition: DS.DSDECOD = 'DEATH'
  Document: IG v3.3
  Domain: DM
  Item: Specification
  Release Notes: ''
  Rule: DTHFL = 'Y'
  Rule ID: CG0136
  Rule Version: '1'
  SDTMIG Version: '3.3'
  Section: '5.2'
  Variable: DTHFL
- Cited Guidance: Indicates the subject died. Should be Y or null. Should be populated
    even when the death date is unknown.
  Class: SPC
  Condition: DS.DSDECOD = 'DEATH'
  Document: IG v3.4
  Domain: DM
  Item: Specification
  Release Notes: No Change
  Rule: DTHFL = 'Y'
  Rule ID: CG0136
  Rule Version: '1'
  SDTMIG Version: '3.4'
  Section: '5.2'
  Variable: DTHFL
- Cited Guidance: 'When study population flags are included in SDTM, they are treated
    as Supplemental Qualifiers (see Section 8: 8.4, Relating Non-Standard Variables
    Values To A Parent Domain) to DM and placed in the SUPPDM dataset. Controlled
    terms for these subject-level population flags, (e.g., COMPLT, SAFETY, ITT and
    PPROT) are listed in Appendix C2 - Supplemental Qualifier Name Codes.'
  Class: SPC
  Condition: Population flags included in submission
  Document: IG v3.2
  Domain: DM
  Item: Assumption 5
  Release Notes: dropped previous release note which was incorrect
  Rule: Population flags in SUPPDM
  Rule ID: CG0138
  Rule Version: '1'
  SDTMIG Version: '3.2'
  Section: 5|Appendix C2
  Variable: QNAM
- Cited Guidance: If multiple races are collected then the value of RACE should be
    'MULTIPLE' and the additional information will be included in the Supplemental
    Qualifiers dataset.
  Class: SPC
  Condition: Multiple records in SUPPDM where RACE captured
  Document: IG v3.2
  Domain: DM
  Item: Assumption 6
  Release Notes: dropped previous release note which was incorrect
  Rule: RACE = 'MULTIPLE'
  Rule ID: CG0140
  Rule Version: '1'
  SDTMIG Version: '3.2'
  Section: '5'
  Variable: RACE
- Cited Guidance: If multiple races are collected then the value of RACE should be
    'MULTIPLE' and the additional information will be included in the Supplemental
    Qualifiers dataset.
  Class: SPC
  Condition: Multiple records in SUPPDM where RACE captured
  Document: IG v3.3
  Domain: DM
  Item: Assumption 6
  Release Notes: Previous release note was incorrect.  While there is a new variable
    ARMNRS, it does not affect this rule.
  Rule: RACE = 'MULTIPLE'
  Rule ID: CG0140
  Rule Version: '1'
  SDTMIG Version: '3.3'
  Section: '5.2'
  Variable: RACE
- Cited Guidance: If multiple races are collected then the value of RACE should be
    'MULTIPLE' and the additional information will be included in the Supplemental
    Qualifiers dataset.
  Class: SPC
  Condition: Multiple records in SUPPDM where RACE captured
  Document: IG v3.4
  Domain: DM
  Item: Assumption 6
  Release Notes: No Change
  Rule: RACE = 'MULTIPLE'
  Rule ID: CG0140
  Rule Version: '1'
  SDTMIG Version: '3.4'
  Section: '5.2'
  Variable: RACE
- Cited Guidance: "IG v3.2[5][Specification: RFENDTC][Required for all randomized\
    \ subjects; null for screen failures or unassigned subjects.]|IG v3.2[5][Specification:\
    \ ACTARM][Randomized subjects who were not treated will be given a value of \u201C\
    Not Treated\u201D. Values should be \u201CScreen Failure\u201D for screen failures\
    \ and \u201CNot Assigned\u201D for subjects not assigned to treatment.]|IG v3.2[5][Assumption\
    \ 10][This definition applies for most interventional studies, when the start\
    \ of treatment is the natural and preferred starting point for study day variables\
    \ and thus the logical value for RFSTDTC. In such studies, when data are submitted\
    \ for subjects who are ineligible for treatment (e.g., screen failures with ARMCD=SCRNFAIL),\
    \ subjects who were enrolled but not assigned to an arm (ARMCD=NOTASSGN), or subjects\
    \ who were randomized but not treated (ACTARMCD=NOTTRT), RFSTDTC will be null.]"
  Class: SPC
  Condition: Milestone associated with RFENDTC is end of treatment and ACTARM in ('Screen
    Failure', 'Not Assigned', 'Not Treated')
  Document: IG v3.2
  Domain: DM
  Item: 'IG v3.2[5][Specification: RFENDTC]|IG v3.2[5][Specification: ACTARM]|IG v3.2[5][Assumption
    10]'
  Release Notes: Cited Guidance expanded to fully reflect the Condition details.  As
    the primary attributes of the rule did not change, the rule version was not incremented.
    N/A for v3.3 (new variable ARMNRS)
  Rule: RFENDTC = null
  Rule ID: CG0141
  Rule Version: '1'
  SDTMIG Version: '3.2'
  Section: IG v3.2[5]
  Variable: RFENDTC
- Cited Guidance: "IG v3.2[5][Specification: RFENDTC][Required for all randomized\
    \ subjects; null for screen failures or unassigned subjects.]|IG v3.2[5][Specification:\
    \ ACTARM][Randomized subjects who were not treated will be given a value of \u201C\
    Not Treated\u201D. Values should be \u201CScreen Failure\u201D for screen failures\
    \ and \u201CNot Assigned\u201D for subjects not assigned to treatment.]|IG v3.2[5][Assumption\
    \ 10][This definition applies for most interventional studies, when the start\
    \ of treatment is the natural and preferred starting point for study day variables\
    \ and thus the logical value for RFSTDTC. In such studies, when data are submitted\
    \ for subjects who are ineligible for treatment (e.g., screen failures with ARMCD=SCRNFAIL),\
    \ subjects who were enrolled but not assigned to an arm (ARMCD=NOTASSGN), or subjects\
    \ who were randomized but not treated (ACTARMCD=NOTTRT), RFSTDTC will be null.]"
  Class: SPC
  Condition: "Milestone associated with RFENDTC is end of treatment and ACTARM not\
    \ in (\u2018Screen Failure\u2019, \u2018Not Assigned\u2019, \u2018Not Treated\u2019\
    )"
  Document: IG v3.2
  Domain: DM
  Item: 'IG v3.2[5][Specification: RFENDTC]|IG v3.2[5][Specification: ACTARM]|IG v3.2[5][Assumption
    10]'
  Release Notes: For Version 2, updated Condition to include milestone concept and
    "Not Treated" constraint. N/A for v3.3 (new variable ARMNRS).
  Rule: RFENDTC ^= null
  Rule ID: CG0142
  Rule Version: '2'
  SDTMIG Version: '3.2'
  Section: IG v3.2[5]
  Variable: RFENDTC
- Cited Guidance: Specification[This will be the same as the date of informed consent
    in the Disposition domain, if that protocol milestone is documented. Would be
    null only in studies not collecting the date of informed consent.]|Assumption
    13[RFICDTC should correspond to the date of the informed . . . In the event that
    there are multiple informed consents, this will be the date of the first one.]
  Class: SPC
  Condition: DS.DSTERM indicates informed consent obtained
  Document: IG v3.2
  Domain: DM
  Item: Specification|Assumption 13
  Release Notes: ''
  Rule: RFICDTC = earliest DS.DSSTDTC
  Rule ID: CG0143
  Rule Version: '1'
  SDTMIG Version: '3.2'
  Section: '5'
  Variable: RFICDTC
- Cited Guidance: Specification[This will be the same as the date of informed consent
    in the Disposition domain, if that protocol milestone is documented. Would be
    null only in studies not collecting the date of informed consent.]|Assumption
    10c[In the event that there are multiple informed consents, this will be the date
    of the first one.]
  Class: SPC
  Condition: DS.DSTERM indicates informed consent obtained
  Document: IG v3.3
  Domain: DM
  Item: Specification|Assumption 10c
  Release Notes: ''
  Rule: RFICDTC = earliest DS.DSSTDTC
  Rule ID: CG0143
  Rule Version: '1'
  SDTMIG Version: '3.3'
  Section: '5.2'
  Variable: RFICDTC
- Cited Guidance: Specification [This will be the same as the date of informed consent
    in the Disposition domain, if that protocol milestone is documented. Would be
    null only in studies not collecting the date of informed consent.]|Assumption
    10c[RFICDTC should correspond to the date of the informed consent protocol milestone
    in DS, if that protocol milestone is documented in DS. In the event that there
    are multiple informed consents, this will be the date of the first one.]
  Class: SPC
  Condition: DS.DSTERM indicates informed consent obtained
  Document: IG v3.4
  Domain: DM
  Item: Specification|Assumption 10c
  Release Notes: Additional cited guidance
  Rule: RFICDTC = earliest DS.DSSTDTC
  Rule ID: CG0143
  Rule Version: '1'
  SDTMIG Version: '3.4'
  Section: '5.2'
  Variable: RFICDTC
- Cited Guidance: Null for screen failures or unassigned subjects.
  Class: SPC
  Condition: Milestone associated with RFSTDTC is start of treatment and ACTARM in
    ('Screen Failure' 'Not Assigned' 'Not Treated')
  Document: IG v3.2
  Domain: DM
  Item: Specification
  Release Notes: N/A for v3.3 (new variable ARMNRS)
  Rule: RFSTDTC = null
  Rule ID: CG0145
  Rule Version: '1'
  SDTMIG Version: '3.2'
  Section: '5'
  Variable: RFSTDTC
- Cited Guidance: Required for all randomized subjects.
  Class: SPC
  Condition: Milestone associated with RFSTDTC is start of treatment and ACTARM not
    in ('Screen Failure' 'Not Assigned' 'Not Treated')
  Document: IG v3.2
  Domain: DM
  Item: Specification
  Release Notes: N/A for v3.3 (new variable ARMNRS)
  Rule: RFSTDTC ^= null
  Rule ID: CG0146
  Rule Version: '1'
  SDTMIG Version: '3.2'
  Section: '5'
  Variable: RFSTDTC
- Cited Guidance: Equal to the latest value of EXENDTC (or the latest value of EXSTDTC
    if EXENDTC was not collected or is missing).
  Class: SPC
  Condition: EX records present for subject
  Document: IG v3.2
  Domain: DM
  Item: Specification
  Release Notes: ''
  Rule: RFXENDTC = latest value of EX.EXSTDTC or EX.EXENDTC
  Rule ID: CG0147
  Rule Version: '1'
  SDTMIG Version: '3.2'
  Section: '5'
  Variable: RFXENDTC
- Cited Guidance: Equal to the latest value of EXENDTC (or the latest value of EXSTDTC
    if EXENDTC was not collected or is missing).
  Class: SPC
  Condition: EX records present for subject
  Document: IG v3.3
  Domain: DM
  Item: Specification
  Release Notes: ''
  Rule: RFXENDTC = latest value of EX.EXSTDTC or EX.EXENDTC
  Rule ID: CG0147
  Rule Version: '1'
  SDTMIG Version: '3.3'
  Section: '5.2'
  Variable: RFXENDTC
- Cited Guidance: Equal to the latest value of EXENDTC (or the latest value of EXSTDTC
    if EXENDTC was not collected or is missing).
  Class: SPC
  Condition: EX records present for subject
  Document: IG v3.4
  Domain: DM
  Item: Specification
  Release Notes: No Change
  Rule: RFXENDTC = latest value of EX.EXSTDTC or EX.EXENDTC
  Rule ID: CG0147
  Rule Version: '1'
  SDTMIG Version: '3.4'
  Section: '5.2'
  Variable: RFXENDTC
- Cited Guidance: First date of exposure to any protocol-specified treatment or therapy,
    equal to the earliest value of EXSTDTC.
  Class: SPC
  Condition: EX records present for subject
  Document: IG v3.2
  Domain: DM
  Item: Specification
  Release Notes: '"for that subject" was removed from the rule and the rule version
    increased to #2.  The condition was also changed to match CG0147: "EX records
    present for subject"'
  Rule: RFXSTDTC = earliest EX.EXSTDTC
  Rule ID: CG0148
  Rule Version: '2'
  SDTMIG Version: '3.2'
  Section: '5'
  Variable: RFXSTDTC
- Cited Guidance: First date of exposure to any protocol-specified treatment or therapy,
    equal to the earliest value of EXSTDTC.
  Class: SPC
  Condition: EX records present for subject
  Document: IG v3.3
  Domain: DM
  Item: Specification
  Release Notes: '"for that subject" was removed from the rule and the rule version
    increased to #2.  The condition was also changed to match CG0147: "EX records
    present for subject"'
  Rule: RFXSTDTC = earliest EX.EXSTDTC
  Rule ID: CG0148
  Rule Version: '2'
  SDTMIG Version: '3.3'
  Section: '5.2'
  Variable: RFXSTDTC
- Cited Guidance: First date/time of exposure to any protocol-specified treatment
    or therapy, equal to the earliest value of EXSTDTC.
  Class: SPC
  Condition: EX records present for subject
  Document: IG v3.4
  Domain: DM
  Item: Specification
  Release Notes: '"for that subject" was removed from the rule and the rule version
    increased to #2.  The condition was also changed to match CG0147: "EX records
    present for subject"'
  Rule: RFXSTDTC = earliest EX.EXSTDTC
  Rule ID: CG0148
  Rule Version: '2'
  SDTMIG Version: '3.4'
  Section: '5.2'
  Variable: RFXSTDTC
- Cited Guidance: Maximum of 8 characters.
  Class: SPC
  Condition: ''
  Document: Model v1.4
  Domain: DM
  Item: ''
  Release Notes: ''
  Rule: SETCD value length <= 8
  Rule ID: CG0149
  Rule Version: '1'
  SDTMIG Version: '3.2'
  Section: 2.2.6
  Variable: SETCD
- Cited Guidance: Maximum of 8 characters.
  Class: SPC
  Condition: ''
  Document: Model v1.7
  Domain: DM
  Item: ''
  Release Notes: ''
  Rule: SETCD value length <= 8
  Rule ID: CG0149
  Rule Version: '1'
  SDTMIG Version: '3.3'
  Section: Table 2.2.6.1
  Variable: SETCD
- Cited Guidance: Maximum of 8 characters.
  Class: SPC
  Condition: ''
  Document: Model v2.0
  Domain: DM
  Item: SETCD
  Release Notes: Reference to model section and item updated per new style
  Rule: SETCD value length <= 8
  Rule ID: CG0149
  Rule Version: '1'
  SDTMIG Version: '3.4'
  Section: Demographics
  Variable: SETCD
- Cited Guidance: Subject identifier, which must be unique within the study.
  Class: SPC
  Condition: ''
  Document: IG v3.2
  Domain: DM
  Item: Specification
  Release Notes: ''
  Rule: SUBJID unique within a study
  Rule ID: CG0150
  Rule Version: '1'
  SDTMIG Version: '3.2'
  Section: '5'
  Variable: SUBJID
- Cited Guidance: Subject identifier, which must be unique within the study.
  Class: SPC
  Condition: ''
  Document: IG v3.3
  Domain: DM
  Item: Specification
  Release Notes: ''
  Rule: SUBJID unique within a study
  Rule ID: CG0150
  Rule Version: '1'
  SDTMIG Version: '3.3'
  Section: '5.2'
  Variable: SUBJID
- Cited Guidance: Subject identifier, which must be unique within the study.
  Class: SPC
  Condition: ''
  Document: IG v3.4
  Domain: DM
  Item: Specification
  Release Notes: No Change
  Rule: SUBJID unique within a study
  Rule ID: CG0150
  Rule Version: '1'
  SDTMIG Version: '3.4'
  Section: '5.2'
  Variable: SUBJID
- Cited Guidance: Identifier used to uniquely identify a subject across all studies
  Class: SPC
  Condition: ''
  Document: IG v3.2
  Domain: DM
  Item: Specification
  Release Notes: ''
  Rule: USUBJID unique within a submission
  Rule ID: CG0151
  Rule Version: '1'
  SDTMIG Version: '3.2'
  Section: '5'
  Variable: USUBJID
- Cited Guidance: Identifier used to uniquely identify a subject across all studies
  Class: SPC
  Condition: ''
  Document: IG v3.3
  Domain: DM
  Item: Specification
  Release Notes: ''
  Rule: USUBJID unique within a submission
  Rule ID: CG0151
  Rule Version: '1'
  SDTMIG Version: '3.3'
  Section: '5.2'
  Variable: USUBJID
- Cited Guidance: Identifier used to uniquely identify a subject across all studies
    for all applications or submissions involving the product.
  Class: SPC
  Condition: ''
  Document: IG v3.4
  Domain: DM
  Item: Specification
  Release Notes: Slightly extended the cited guidance
  Rule: USUBJID unique within a submission
  Rule ID: CG0151
  Rule Version: '1'
  SDTMIG Version: '3.4'
  Section: '5.2'
  Variable: USUBJID
- Cited Guidance: The name of the Element. If ETCD has a value of "UNPLAN" then ELEMENT
    should be null.
  Class: SPC
  Condition: ETCD = 'UNPLAN'
  Document: IG v3.2
  Domain: SE
  Item: Specification
  Release Notes: ''
  Rule: ELEMENT = null
  Rule ID: CG0152
  Rule Version: '1'
  SDTMIG Version: '3.2'
  Section: '5'
  Variable: ELEMENT
- Cited Guidance: The name of the Element. If ETCD has a value of "UNPLAN" then ELEMENT
    should be null.
  Class: SPC
  Condition: ETCD = 'UNPLAN'
  Document: IG v3.3
  Domain: SE
  Item: Specification
  Release Notes: ''
  Rule: ELEMENT = null
  Rule ID: CG0152
  Rule Version: '1'
  SDTMIG Version: '3.3'
  Section: '5.3'
  Variable: ELEMENT
- Cited Guidance: The name of the Element. If ETCD has a value of "UNPLAN" then ELEMENT
    should be null.
  Class: SPC
  Condition: ETCD = 'UNPLAN'
  Document: IG v3.4
  Domain: SE
  Item: Specification
  Release Notes: No Change
  Rule: ELEMENT = null
  Rule ID: CG0152
  Rule Version: '1'
  SDTMIG Version: '3.4'
  Section: '5.3'
  Variable: ELEMENT
- Cited Guidance: ARMCD is limited to 20 characters and does not have special character
    restrictions.
  Class: SPC, TDM
  Condition: ''
  Document: IG v3.2
  Domain: DM, TA
  Item: ''
  Release Notes: ''
  Rule: ARMCD value length <= 20
  Rule ID: CG0153
  Rule Version: '1'
  SDTMIG Version: '3.2'
  Section: 4.1.2.1
  Variable: ARMCD
- Cited Guidance: ARMCD is limited to 20 characters and does not have special character
    restrictions.
  Class: SPC, TDM
  Condition: ''
  Document: IG v3.3
  Domain: DM, TA
  Item: ''
  Release Notes: ''
  Rule: ARMCD value length <= 20
  Rule ID: CG0153
  Rule Version: '1'
  SDTMIG Version: '3.3'
  Section: 4.2.1
  Variable: ARMCD
- Cited Guidance: ARMCD is limited to 20 characters and does not have the character
    restrictions that apply to --TESTCD
  Class: SPC, TDM
  Condition: ''
  Document: IG v3.4
  Domain: DM, TA
  Item: ''
